acc_x, acc_y, angular_z, stamp, 
-0.05340453198441238,0.01326361592592163,0.00016783664183548868,28369000000
-0.05329724297128892,0.004116619064114845,-0.00031868256294092335,28374000000
-0.05707318529386954,0.01811569172600097,-0.00013096408060680426,28379000000
-0.059248630937526414,0.0034551213219812037,0.00012271472107359786,28384000000
-0.08762410654926267,-0.013856435892498114,0.0003489914942076412,28389000000
-0.06826476130247781,-0.005756051431041841,0.00033393891084202706,28394000000
-0.05533951854130131,-0.015453722803139117,-9.134973650616475e-05,28399000000
-0.06304316222591376,-0.007433883751730358,-0.0003335165040440015,28404000000
-0.03280079122301969,0.0027175651859144474,0.00012655324375855512,28409000000
-0.07413208877287447,-0.010461828168276208,0.00018785031337582143,28414000000
-0.0442179622233803,0.0327222005707619,0.0001460763984800181,28419000000
-0.060233789784142705,0.021709874075620483,2.7602992367517382e-05,28424000000
-0.042243341550483364,0.00551765961077629,-2.264096978931068e-06,28430000000
-0.07047645872273256,-0.012157566478324031,0.0002157809558928265,28435000000
-0.07378877305175072,-0.021843268034862934,0.00027983447619949565,28440000000
-0.054745392311857655,-0.0313712007590462,-7.157767304497566e-05,28445000000
-0.06269225528399543,-0.01203501979774495,0.0001298642001822377,28450000000
-0.061502440410469775,0.001289497945478942,-5.27464392946182e-07,28458000000
4.759566966419646,-0.03824293622945627,2.5194705243858507e-05,28464000000
-0.13106066947078415,0.03493095852867154,-0.0001799952968932962,28469000000
0.03676754114817021,0.046038827590046086,-0.0004935933326992871,28474000000
-0.19252953061768124,-0.08612540346346878,-0.0014021615413331255,28479000000
-0.05385837021491192,-0.009026584504494983,-0.0010914870812738105,28484000000
0.095127194420755,0.05994999983617274,-0.001808538765610359,28489000000
6.575725670524945,-0.16194696466008196,-0.0017878525617318443,28494000000
0.04951914877775307,0.010013814266497483,-0.0018988651634287877,28499000000
-0.1332010730345253,0.002902411225517672,-0.00169659873965342,28504000000
-0.07687449285401124,-0.01614968603746606,-0.0023265577644972103,28509000000
-0.08863061798641556,-0.0016124322848277929,-0.0019949156416953465,28514000000
-0.037418565112924136,-0.0013841099509044504,-0.002133873351876462,28519000000
-0.06801932826096062,0.014737497876265484,-0.0019338009089631494,28524000000
6.962016397064468,0.05403724614491467,-0.0019056798102180294,28529000000
-0.15502214922514546,0.008805024535025144,-0.0013389243228443407,28534000000
-0.12709067978212982,-0.026771627688217798,-0.0017058488014226258,28539000000
-0.04906199714108647,-0.008301799593302132,-0.0016967033080265057,28544000000
-0.07168584971488862,0.02435627850948872,-0.0014828710114683312,28549000000
-0.06499458441482743,0.02558054651429683,-0.0013858290710771007,28554000000
-0.07890061201022518,-0.0036971943724930876,-0.0015256737820682554,28559000000
5.698657085645904,0.00757571259650534,-0.0014211885675623397,28565000000
-0.12372079041895126,0.03381640165101787,-0.0010758655866512684,28570000000
-0.08022162401909665,0.011337966820809989,-0.0016955806108602525,28575000000
-0.0692578363749758,0.0037385315786125205,-0.0018031143365922035,28580000000
-0.05826001685639825,0.005089745947687045,-0.0015067765288396188,28585000000
-0.0647677205164418,0.005571092643137812,-0.0014491930960785445,28590000000
-0.04395903985030984,0.017095666308202834,-0.001627487082423889,28595000000
4.289578997436394,0.0034659670332946703,-0.001804881531169061,28601000000
-0.1148934895737563,0.0006240205157235642,-0.001633346704836689,28606000000
-0.06803998622114137,-0.00018946923451803384,-0.0019047229149840056,28611000000
-0.024107688021978775,-0.012736933904288773,-0.0019820037833302995,28616000000
-0.039421969415752135,-0.011765163397480209,-0.0018024508009053504,28621000000
-0.0503936642120079,-0.008875628346119699,-0.0023653218218884836,28626000000
5.771502449852868,-0.02046011684830845,-0.002046013482748823,28631000000
-0.15710305668055283,0.002789393365209958,-0.0018040497695318508,28637000000
-0.08847896686057108,-0.014004632987165509,-0.0013357703929178246,28642000000
-0.038106657406256045,0.020142489855556202,-0.0014883972137853445,28647000000
-0.04797319717729339,0.004812821109274539,-0.001418267719060989,28652000000
-0.06848687499514328,-0.004441392873169643,-0.0019192635222194518,28657000000
-0.02122164424500775,-0.018248065432036442,-0.0016343080186692546,28662000000
6.897865963677689,0.013917718070332097,-0.001962753450112272,28667000000
-0.15919736302496387,-0.047345593479061886,-0.0018103446341120124,28672000000
-0.046399333147193314,-0.030909169207202537,-0.0014800831497368753,28677000000
-0.03914748529023314,0.0013847420878024229,-0.0014819709853817282,28684000000
-0.04014732587605458,-0.008488797517147576,-0.0016428513484939996,28692000000
5.600040275911859,0.002090181979713898,-0.0016448119947187639,28697000000
0.13418395926877066,-0.013019367459024798,-0.0017463282594511339,28702000000
-0.08418407394106799,-0.023431576896011302,-0.001759631820282131,28708000000
-0.05792353813220688,-0.00104222452575562,-0.001535935675844886,28713000000
-0.041180141464376756,-0.01075369198556373,-0.0017390200813807584,28718000000
-0.044938198272741016,-0.0021768283052966417,-0.0018100292583825561,28725000000
-0.030955545478210535,-0.0035010764461369513,-0.0015923298037175064,28730000000
5.759123569864141,0.01606825328240503,-0.0017619133641107627,28735000000
-0.1427865719110287,0.02501605533056099,-0.001997041715470794,28740000000
-0.08332212499408595,0.0018706535435813795,-0.0017261104669989218,28748000000
-0.028333179401776508,-0.008179444588939738,-0.0019523943810205522,28755000000
-0.03058535446285108,-0.01850135306865889,-0.0014362636749905978,28762000000
14.17588167438893,0.02133807091932717,-0.0013902557007051315,28767000000
0.7102886892204078,0.04471381447746765,-0.0015062079345522876,28773000000
-0.11715802682518761,-0.008515252499043948,-0.0017516952640377723,28778000000
-0.050034039245957326,0.02993041060190694,-0.0015595153745030052,28783000000
-0.028957740764791448,0.015425512863471623,-0.0017003864848538213,28788000000
-0.01935582528528804,-0.026023756367184594,-0.0014510343630236501,28793000000
0.017257667041835078,-0.027381543796515362,-0.0018902524284582535,28798000000
6.924279613987792,-0.013924198434158208,-0.0019679798059164025,28803000000
-0.05687720209211747,0.018643518296731873,-0.001698836298056765,28813000000
-0.014650194274484062,0.029154449382894805,-0.001467192003219269,28818000000
-0.018166239865777336,0.016049138245038976,-0.0018897352606548996,28823000000
-0.009681446279993726,0.014347340837731972,-0.001698304547935962,28828000000
5.658927776043825,0.004064165004554568,-0.0017603253300969661,28833000000
1.221929799192911,-0.017479984187092432,-0.001391557646226584,28838000000
-0.06115997406539001,0.000778498595161381,-0.0017543417165947971,28843000000
-0.04487711972580377,0.04516197786624336,-0.0017496358275524504,28848000000
-0.025171022421991252,-0.007277024305989354,-0.0017315740325628897,28853000000
-0.011760236436098952,0.019713671136644982,-0.0012074023967958037,28858000000
0.016987986641576518,0.003554659913570201,-0.0018122042225481678,28863000000
6.775171885002627,0.009393545297310497,-0.0016645798875987662,28868000000
0.09408819136699206,-0.0054907496920784706,-0.001847234021337413,28873000000
-0.060837128882992926,0.0027995338762248963,-0.0016426832689209827,28878000000
-0.042809259088716176,-0.00032686828935066855,-0.0018004972762023569,28883000000
0.003382604438860564,0.011421126715618672,-0.0015806385529259074,28890000000
0.011966009367096832,0.01643697355726473,-0.001933073801111019,28895000000
1.6292688828423036,0.01868448298223993,0.0011049952622642421,28901000000
0.7079244550726923,0.023142575785251494,0.02087867411807027,28906000000
-0.058910931376612824,0.04337984656472817,0.058388580911818,28912000000
-0.05888413400563143,0.03868548240920318,0.09695024123002194,28917000000
-0.036958839970844065,0.06951479248316274,0.13911576715688517,28922000000
-0.01835890182008626,0.07906206716058006,0.18965174916526117,28928000000
0.023779072106063157,0.09392876365125355,0.22899468155058628,28933000000
4.239176364459297,0.12715515882897716,0.26700639444999247,28938000000
-0.07170411336233284,0.13008451459065615,0.3343808420496977,28943000000
-0.0014268732874169777,0.16949415909484558,0.39141088237669147,28948000000
-0.010947669438624305,0.2063639595505938,0.4452073792400313,28953000000
0.01325749493264809,0.2153258567231248,0.4930865797270767,28960000000
0.013703274372218237,0.25770243417347527,0.5435974617750786,28965000000
3.423260868800916,0.22159391318832536,0.5735858935624308,28970000000
0.03234487664685104,0.2869009168131321,0.6153825636478808,28976000000
-0.02847260147987796,0.3180472741798846,0.6484711773076582,28981000000
0.01314127648932453,0.3461201092208704,0.6771713636883128,28986000000
-0.001392817768758152,0.3602218298330713,0.7002864068285165,28991000000
0.007938591344397249,0.35262189010210654,0.7170984862121357,28996000000
0.01851513545010696,0.34996428849423644,0.7267038906540788,29001000000
1.3259083640254439,0.36968362301882574,0.7337754027286336,29006000000
0.024344782357781414,0.3926199231288774,0.739190047588799,29011000000
0.03440462879353048,0.3755177083408155,0.7417071900400143,29016000000
0.03253164167364758,0.3666051950531817,0.7413056256498857,29021000000
0.03860415849597469,0.4038300868238304,0.7381041118183237,29026000000
0.034887366756990536,0.37078094366126985,0.7334279371397245,29031000000
0.0466563691530035,0.3431580640800399,0.7269191296952396,29036000000
0.05832597135386139,0.3587982425807442,0.7189147992531953,29041000000
0.039854237450338094,0.36518843037892446,0.7149742106141086,29046000000
0.03305206643985763,0.3698726426636267,0.7013183210795938,29051000000
0.020330996447543784,0.3897183621605238,0.6938621844710867,29056000000
0.05242356658246309,0.3444517044549862,0.6867290417415537,29061000000
0.045581364921265556,0.3673254515653982,0.6813483100750729,29066000000
0.050582683663374116,0.32259942182797763,0.6772718761172382,29071000000
0.04598451213169421,0.3364540387034133,0.6748705538313013,29077000000
0.034132343444982984,0.3360052734092945,0.67513979586139,29082000000
0.0525938402367286,0.32676960193146437,0.6765165521396783,29087000000
0.04270177367556899,0.36598801956365706,0.6793715322285866,29092000000
0.01576193225185067,0.3228719067447183,0.6832235602062133,29098000000
0.042416248386437753,0.3492264793057759,0.6892926197819702,29103000000
0.03990819956527034,0.3754288232473214,0.6957581888298326,29108000000
0.055641759192815284,0.34302832427830005,0.7002677944764382,29113000000
0.04101700439696041,0.3292016773248046,0.703026014525482,29118000000
0.06619796594362777,0.3452222607158132,0.7073782044351945,29125000000
0.06703447001386897,0.3753440306475252,0.7116763627395165,29130000000
0.056435366617172036,0.35068966179376,0.7131712814181285,29135000000
0.04982179379392284,0.3639198539188653,0.7145508921440433,29140000000
0.09235577909844597,0.38164236074539126,0.7143179292353465,29145000000
0.07286239222873409,0.34711430449674074,0.7126025611811516,29150000000
0.07829001545667398,0.3644933827563626,0.7110619393636933,29155000000
0.0559674692074259,0.3643264866283405,0.7088464506771227,29160000000
0.08003737366399263,0.34687029381301365,0.7057563376293207,29165000000
0.04300036471337854,0.36811785389855906,0.7029719553202907,29170000000
0.05831752762004772,0.3508652958688081,0.700173032986799,29175000000
0.04344545093352346,0.3799999271763777,0.6964539983797479,29181000000
0.06485934230455885,0.36884456596200477,0.6934231863819675,29187000000
0.060426238079361,0.38395852846525463,0.6921858552372707,29192000000
0.0337022881242462,0.3284867285967067,0.6912681509165036,29197000000
0.06402322791583495,0.3731197585145309,0.6910648828140188,29202000000
0.087954505693698,0.3465374362971936,0.6914910478202357,29207000000
0.08196025486894853,0.38234535669080233,0.6922707511501247,29212000000
0.10942428395214451,0.37179156519208795,0.6932713286554767,29217000000
0.08774581120723055,0.37226614303356054,0.6949576903608239,29222000000
0.09921125341692154,0.3657674744361563,0.6963443956258284,29227000000
0.059646121366223145,0.3424380566461703,0.6984454959319589,29232000000
0.04276181417843908,0.33065893617721104,0.6985563877609164,29237000000
0.10904125768497784,0.3659252579434949,0.7014962224395968,29242000000
0.1035756730576799,0.35163194365356953,0.7024733511904218,29247000000
0.06755264067398543,0.4035123295591234,0.7036772357264669,29253000000
0.09981178724513418,0.3810787668574577,0.7045881017684688,29258000000
0.07702713503358606,0.39647129749274335,0.7045356694317998,29263000000
0.05246011461389739,0.379928350899581,0.704618615358615,29268000000
0.08624682491933613,0.38440972304390514,0.7041367506515376,29273000000
0.10379202576691729,0.3851390908867775,0.7028764067095671,29279000000
0.1304353593683252,0.38222947858348666,0.702214834246478,29284000000
0.0965935346983297,0.3556184777434064,0.7009921432249219,29289000000
0.08339443200242674,0.3578885493387357,0.7000913979328759,29294000000
0.10369853092609888,0.347141403636527,0.699266435954039,29299000000
0.12862170582194923,0.3464918740040899,0.698025910646595,29306000000
0.06444914461710044,0.3738555029502452,0.6971013497191655,29311000000
0.07264193361834534,0.3767616477248576,0.6969547422014216,29316000000
0.08796050823705834,0.35671350100977695,0.6966287773858941,29321000000
0.11905469607165407,0.36184631862729993,0.6965044548918385,29326000000
0.10668451695422092,0.37162002700962055,0.6966862714642905,29331000000
0.10018280005790615,0.36911086815465016,0.6964563142102703,29336000000
0.12340438682871593,0.34561287888559644,0.6976484318978295,29341000000
0.10659991945538483,0.35213418008274,0.6980556949067381,29346000000
0.0764688594545909,0.38087710578938727,0.6985028312312885,29351000000
-0.6328320423510064,0.2321618677957911,0.7087317634483564,29357000000
-22.09970908430225,-2.7474423543048947,0.719045900946893,29362000000
-15.365566688293478,-1.8022290567942085,0.728882535287945,29368000000
-10.422390351450266,-1.1138755018501427,0.7339292094443474,29373000000
-7.4583026838397215,-0.7319379994954022,0.7374392253351691,29378000000
-5.298333704126736,-0.5469126791227398,0.7395432661539011,29383000000
-3.7602586684759944,-0.3684122825533489,0.741710178941584,29388000000
-2.6425700566023735,-0.24352325065778974,0.7425017313876489,29393000000
-1.8371952634629964,-0.2175387614100704,0.7435041113760609,29398000000
-1.3025761898667843,-0.14344804117366577,0.7446261308111287,29403000000
81.59880619420285,11.12476960977746,0.803676207712444,29409000000
-1.4087747224148863,0.047883500190685005,0.8192328568788503,29414000000
-15.84265740227018,-0.4382980230753548,0.846344400100236,29419000000
-17.646977596588467,-1.185619215232757,0.8544948605998308,29424000000
-12.604908011709163,-0.8338645009374253,0.860145876925023,29429000000
-8.940829453294384,-0.5514212826586089,0.8650030328688347,29434000000
-6.152750459021378,-0.39411668615031475,0.8677347742029927,29440000000
-4.161901455130219,-0.27536095130964056,0.8701475325776973,29445000000
-2.8852372417903718,-0.17343060957918788,0.8712376822205741,29450000000
-2.0314073872975076,-0.1415752779059095,0.8726159988647705,29455000000
-1.3868843698153834,-0.07361690262708573,0.8731917350820014,29460000000
-0.9147779912692632,-0.08642192183164457,0.8734160775820681,29465000000
-0.5877599556509103,-0.029752986434460463,0.8739436270725003,29470000000
-0.3596891480406975,-0.035833481384900584,0.873835494017716,29475000000
78.12856804305585,7.327137015618224,0.9231071590568167,29480000000
12.176812148031857,0.6896029519837489,0.9607673783419883,29485000000
3.9402988494783724,-1.1662009154463582,0.986969163221452,29490000000
-13.214851515419094,0.36685757962913956,1.0050379014473392,29495000000
-23.14883189843773,0.2305428218452912,1.018764664396532,29500000000
-15.827150598109046,0.1374252825819173,1.0259809543491185,29505000000
-11.208389985890369,0.09943472583147264,1.0312937529856847,29510000000
-7.966561089704739,0.10006446270053504,1.0345652651224928,29515000000
-5.4072130547564505,0.08588350901449213,1.038055741670147,29520000000
-3.7592903821957666,0.047727189540123297,1.039280381636797,29525000000
-2.7073262876480144,0.0271061513198984,1.0408108824429358,29530000000
-1.8301817555817845,0.05729594349170298,1.0413761691050614,29535000000
-0.48831331933969274,-0.7814350793794081,1.0413222665143784,29540000000
0.026038361776245723,-0.7758242380893502,1.0409307716398435,29545000000
-0.04876563551545259,-0.4564392185604172,1.0410830581839492,29550000000
0.004536255286604868,-0.2934813605830693,1.0409192116511345,29555000000
-0.024384910009903126,-0.19343710916877685,1.0406406295798964,29560000000
35.69681892027172,4.25646186646494,1.0573196317995437,29565000000
57.773501175590226,6.028847845222465,1.1144495144243225,29570000000
2.8729793408947932,-1.6215194877838264,1.1482165111209235,29575000000
-3.612792822069947,0.10106829057478194,1.1767404770098129,29580000000
-25.28228680231478,2.8280980484545797,1.1892629898198888,29585000000
-17.87544104180699,1.9751110443965967,1.198194364977068,29590000000
-12.665699604537393,1.4150844826391975,1.2043336596482062,29595000000
-9.296086974470667,1.1153679907505916,1.208188166894254,29600000000
-6.535238220074417,0.7759626818472558,1.2122553192862968,29605000000
-2.591857049219311,-1.729062589361261,1.2128086131668492,29610000000
-0.2466291410955336,-3.1628996596469148,1.2120964642641987,29615000000
-0.18550119177265847,-2.1187044867916267,1.2123610657122266,29620000000
-0.170599126819078,-1.3876976531629344,1.2119725778592763,29625000000
-0.0884857162914851,-0.8737398363081668,1.2117349180796912,29632000000
-0.07592266543618231,-0.44612622940593444,1.2116100352131283,29637000000
-0.023285603470546565,-0.18406873459160147,1.211427258166791,29642000000
-0.048975348580643965,-0.1429410578384793,1.2110344574100649,29647000000
0.0011596450109296955,-0.11497089625056678,1.211505130590358,29652000000
76.91349105007195,13.73762560202768,1.2728944756815885,29657000000
7.514189997505916,-1.8071691138732562,1.3292208239987149,29664000000
-81.35351515172749,0.7393657845623778,1.4378355307132438,29669000000
-4.785362935875514,5.090551003764284,1.6337391316881293,29674000000
23.073087140740938,1.5653283647687493,1.7542670807955882,29679000000
-4.897827876981427,-0.4104170402364021,1.8351320438271572,29685000000
-9.242177358779127,-2.869337825421914,1.899148887981209,29690000000
-6.46857964697472,-1.0758466397422077,1.9627605077166355,29697000000
-20.962858252101476,-3.9047213896700783,1.9787548734368308,29702000000
15.100077108319663,6.4664341062394355,1.9848533373366948,29708000000
-17.8871726310002,-9.898936166197002,2.0401749247363354,29713000000
20.342671618764278,6.21256720007502,2.1030240954487724,29718000000
4.769887912387342,2.870900073058384,2.153078836013406,29723000000
0.8511627615985422,1.1712322783841225,2.244866359011893,29729000000
-18.537846204446694,-7.906328839694314,2.314156296828674,29734000000
22.357173711689637,12.224661739162261,2.3626071773207613,29739000000
-14.406018759955227,-8.879945864887588,2.4433121112451897,29744000000
2.1503547689952947,0.35516505715812396,2.5359091304730375,29750000000
28.03767222084934,19.814407199618888,2.6059206864624946,29755000000
9.968260273694062,8.153683621517924,2.7542136845626852,29760000000
1.2932782392741828,8.374025220778158,2.854419299079696,29765000000
-63.668232073018274,-16.15244202227306,2.9078539409609485,29770000000
-9.808833829516775,5.279964471972272,2.8989137091799875,29776000000
1.7649440464983883,0.7000690249369343,2.8992709826188583,29781000000
29.70644459756731,13.217522990572359,2.9104045803706526,29787000000
0.6150608467474888,0.8487615317781563,2.9100028379868457,29793000000
-17.135014982150352,12.837119736257153,2.8937291643702356,29799000000
-11.421265415914874,9.679439638293056,2.8779733853711105,29807000000
-0.15023078979261847,-3.8524614072036126e-06,2.8775571702148586,29812000000
1.2566808096372748,-0.7694181475053866,2.878251809110742,29817000000
-10.51040768188622,8.143814086590448,2.866025159051323,29822000000
-9.553076227980078,4.436871046932003,2.859931801308185,29827000000
0.4997932882181428,0.24818033613248683,2.8600577391391275,29834000000
0.45573750167237853,0.0665347713269954,2.859964416308394,29839000000
0.09491165306367697,-0.1049980094171674,2.8596002450903657,29844000000
0.49420121286446966,0.10623251019511472,2.8602964757500793,29849000000
0.4537193770252065,0.09959998427830069,2.860319673567192,29854000000
0.7170557040677424,0.15976891301506543,2.860043435916298,29859000000
0.5257299130672711,0.09840678881883726,2.860226006490558,29868000000
0.7626524387668835,0.1201998912130185,2.8604094676408,29873000000
0.49150593316589186,0.06401978309812403,2.861019190025383,29878000000
0.8621606628838445,0.13398821715671685,2.861075746878536,29883000000
0.5311380269508356,0.10351271503135481,2.861260314852521,29888000000
0.8793864398700402,0.1059916859313293,2.8613875432885307,29893000000
0.7469053955810065,0.1227665394201331,2.8616852938337494,29899000000
0.5844893336330895,0.06982601808599811,2.86171453165378,29904000000
0.9591081664055559,0.1159928006753491,2.8620293801416485,29909000000
0.6283462713386542,0.07991789440910727,2.8626510884078717,29914000000
1.0128394211818514,0.11062877352573748,2.8626127482534587,29919000000
0.6690601653520889,0.038012001079010704,2.8632484658734856,29924000000
1.077525935216035,0.06537321469901052,2.86307616288479,29929000000
0.7344229780077859,0.034316084070676205,2.8635953474407745,29934000000
1.1169197675414613,0.1049038145997127,2.8639300084151036,29939000000
0.7610300064475923,0.047952002523076305,2.864488365470613,29944000000
0.9538463332205482,0.07266060427470096,2.864582283617655,29950000000
1.1454513801301935,0.10331332940031539,2.8651200146089155,29955000000
1.0051771515753771,0.060865339046438344,2.865181063459168,29960000000
1.0042781521389788,0.029730410026171813,2.8659176711867738,29965000000
1.05873383200691,0.05672785490293841,2.866283249078018,29970000000
0.7675440102683377,-0.09838839935170789,2.866219101851112,29975000000
1.0831748412345137,-0.0031618933587231925,2.8669899358889483,29980000000
1.2542316414724652,0.0765101776643169,2.8673427338522037,29985000000
1.0925887870802857,0.0016009006053701843,2.8680985936576624,29990000000
0.9775592282668767,-0.11337537927558006,2.8683341136284852,29996000000
1.1637073382222025,0.0007845799657830374,2.868867002446875,30002000000
1.1896486672015738,-0.07344929243772297,2.868650577974648,30007000000
1.22526166231825,-0.06162058477503249,2.8691730917559894,30012000000
1.379069083202481,0.046530562273144324,2.869078958070889,30017000000
1.034384011198236,-0.19267647773931387,2.869842812689373,30022000000
1.2660622440473257,-0.08237463903716945,2.8698967483035953,30027000000
1.2574903628324963,-0.12405073584352715,2.869920948236011,30032000000
1.429881912554483,-0.011118824074592016,2.870364620942984,30037000000
1.218141372771818,-0.13739700781156772,2.8703385032587647,30042000000
1.1760708310811943,-0.3120598866101142,2.8704617955308214,30047000000
1.2725540392572618,-0.23101061478540696,2.8704072259494238,30052000000
1.7888975661166917,0.010285846046875373,2.870515956578601,30057000000
1.23907245137889,-0.5841422414800022,2.8704799049943888,30062000000
1.4916026424544322,0.10840035980085223,2.87041613134463,30067000000
1.6592624053846683,0.23313109090415607,2.870240246390322,30072000000
0.8016917570201584,-1.9803079099230603,2.8709187749232794,30077000000
1.6292205900617485,1.0521340397273184,2.870329253884743,30082000000
1.084611211339482,-2.8227713049362992,2.8716300012720675,30087000000
1.645607213299632,1.8668649800707928,2.8704304599582313,30092000000
1.1655998376552361,-3.254871433919276,2.8715497637411076,30097000000
1.701249267425216,2.1237609691163333,2.8699794009743855,30102000000
1.1023267099788265,-3.304446420741717,2.8711723318974753,30108000000
2.354944347655634,3.467627746275174,2.8696070949616406,30113000000
0.6428844257418339,-2.3102501894272502,2.8705441220399117,30118000000
1.1595101014684186,-4.061892388734988,2.8722041808348098,30123000000
1.5644507854078098,-5.536219727062829,2.874264821587097,30128000000
2.023734697294092,8.829576581054353,2.8703102456376866,30134000000
0.9640220729166827,-4.026379084061123,2.8723244631414153,30139000000
1.3021014705047214,-5.641837713747238,2.87468097141116,30144000000
1.5049395524937952,-6.917176845137432,2.8779435116635455,30149000000
2.6160343040729113,15.29830743307082,2.8705923865626732,30154000000
0.7728714527248605,-4.270697378259993,2.873204223370083,30161000000
0.9841545991114843,-6.042399441166513,2.8756123987436872,30166000000
35.96555602094678,-5.412058668322164,2.85424933141949,30174000000
-0.07426297706151025,-0.3205455869496664,2.854656121712646,30181000000
0.12582316119920167,-2.460271835889667,2.856650526225554,30186000000
0.385604387836436,-4.664819390151881,2.858371232109707,30191000000
23.01215144896644,25.667431760416545,2.8355996429243646,30196000000
0.00269144620769432,-1.1522771336305506,2.8363416788755997,30201000000
0.10520647487487768,-3.0884937969870783,2.8371889345006536,30206000000
9.139736271041041,8.999956955480293,2.8288284894904936,30211000000
-0.056278535400854535,-0.7462926404635298,2.828850336227151,30216000000
-0.04247449108892234,-2.7415828405836042,2.8294966465977605,30221000000
3.812369211005698,4.306954621609949,2.8252949872530797,30226000000
-0.061351068338053115,-1.8487340566848958,2.8261634771220363,30231000000
3.16617656505254,2.486980569233829,2.8234563756241733,30236000000
-0.17004399328735037,-1.9030525359125445,2.8239288491908976,30241000000
3.099741528786981,2.2374606119499867,2.821235176629096,30246000000
1.9464296762621522,0.5132074127350073,2.8191293095639307,30252000000
1.7338256796937646,0.3647067501112057,2.817731872062228,30257000000
-0.15187819999813615,-0.6479040515356458,2.817975804410185,30262000000
1.8865339674169637,0.4144084058872086,2.8160215791755854,30267000000
1.4724114128908634,0.15500089882822185,2.8149746770709663,30272000000
1.5948231403643711,0.38908112603475714,2.8141358379389168,30277000000
2.391895984035722,0.5306225087358994,2.812731813948573,30282000000
1.366696330639065,0.16393974881449483,2.8115246637197613,30287000000
1.5849322678627362,0.11859842921472763,2.810333696992279,30293000000
1.4512966628031032,0.11682815458032289,2.8093064267440786,30298000000
1.1048046513658691,0.09163774763031703,2.8090377037971748,30303000000
1.344074161494287,0.12308930692780094,2.808407747229684,30308000000
1.4318456167129623,0.10763949424738428,2.8079604086635377,30313000000
1.492840264100952,0.061837610447713104,2.807020596763522,30318000000
1.3706934812574243,0.05849969249195922,2.8064671641080903,30323000000
1.2888010781105037,0.0641983936939996,2.805677023087576,30328000000
1.3717253508319178,0.04062045407487877,2.8051902087407186,30333000000
1.3778310623591985,0.0035026449790731135,2.804827965545545,30338000000
1.4148746583363392,-0.019438746435066864,2.8045952801440936,30343000000
1.5736165824222579,0.037674154905089026,2.803922654437906,30348000000
1.0584890275466472,-0.009285449610665155,2.8036639193395123,30353000000
1.6683815981628034,-0.030114544001725155,2.802959922777619,30358000000
1.0051771520120427,-0.011554492885981597,2.802907012710848,30364000000
1.4994407850971063,0.005595147107793711,2.8021127496679132,30369000000
1.2827117954728586,-0.030490465483985933,2.8017540363426447,30374000000
0.9638529862595556,-0.018036314770455995,2.8017385013948455,30379000000
1.4831850199555738,-0.012971120983324444,2.8008538211640035,30384000000
0.9353328538372198,-0.05552887895028357,2.800035237466633,30389000000
1.5392366416947298,-0.04244395467302444,2.8001315909102558,30394000000
0.9074751793657123,-0.08216813935700013,2.799376251690597,30399000000
1.16870333806489,-0.056303753377273974,2.7991606453235396,30404000000
1.153612521132699,-0.04292674053600937,2.7983762506339773,30409000000
1.1607227968767433,-0.08894745475608334,2.7974810727875528,30414000000
1.5880301094525766,-0.026805568659813313,2.7971170067098026,30419000000
0.8056574715021131,-0.12447221389906217,2.7966495911785767,30424000000
1.5373771001968632,0.008897008837752282,2.7957925358118607,30429000000
1.079398957160364,-0.11206154320772224,2.795097298244036,30434000000
1.056818931036426,-0.09152244604493102,2.794369161372779,30439000000
1.0240606705735649,-0.07645792619491643,2.7935035726849935,30444000000
1.0189391971103239,-0.08409810258675621,2.7918480539336366,30451000000
0.9711135587915909,-0.11036147214342615,2.7914846171272223,30456000000
0.9910183022727356,-0.08547139363984464,2.790930557108987,30461000000
0.972954924733839,-0.09427014362772919,2.790066794937727,30466000000
0.9161632063650766,-0.0576277531496593,2.78915750730034,30471000000
0.6382558627305055,-0.14085773761703174,2.7881407007548313,30476000000
0.9078518849477907,-0.09029968056452467,2.7874377724952177,30481000000
0.8825932981286411,-0.05487431608859564,2.7869546280180506,30486000000
0.852959305904696,-0.09414191119593841,2.7857194761388326,30491000000
1.1720858212929002,0.047738665049546325,2.7853207691527273,30496000000
0.807786702746703,-0.06374558151305988,2.784358168944174,30501000000
0.8159152269162022,-0.049814214879133206,2.7837473776161454,30506000000
0.3991678893942992,-0.20785468700287055,2.783301022658049,30511000000
1.0596358849194558,0.14189083779980483,2.7818991274166773,30516000000
0.3006352315252965,-0.22278332962653066,2.781857849578371,30521000000
0.16125352154757894,-0.297785863716419,2.7811977180518235,30526000000
-0.05063227801316131,-0.5970865891170106,2.780940110731387,30531000000
0.7919901420311861,-0.022549831549363814,2.7794618618305296,30536000000
0.917520423153584,0.26183840102075245,2.77867579328179,30541000000
1.2687513694707515,0.268429764549676,2.7770423234085,30546000000
-2.568826478686625,-1.6556535289767924,2.777558784585659,30551000000
1.8651040362670013,0.6026398731398153,2.7752940717296983,30556000000
-3.307059098257713,-1.9555646173450822,2.7762895237022813,30561000000
4.214432636525202,1.8738343320580049,2.772958374205265,30566000000
-3.257102517352182,-1.7923847262587038,2.7736015566413896,30571000000
5.111901892667685,2.323799593244459,2.7688922022223377,30576000000
-3.190641775003246,-1.6226442794705016,2.769995703932323,30581000000
-4.575980277991842,-2.2551556327601294,2.7710632758547957,30586000000
8.622453313567734,3.572067410715228,2.7643911013623805,30591000000
-3.24401724992196,-1.452696790533193,2.7649370191171547,30596000000
-4.664307641746089,-1.9997139592774589,2.765639806308121,30601000000
-5.851129784249327,-2.4052529246732086,2.7669445796395538,30606000000
15.216201894457738,5.996786925248319,2.755984180729648,30611000000
-3.598285920187848,-1.3745466487411984,2.756469813485253,30617000000
-5.142217190275026,-1.7976298550231604,2.7569660941578196,30622000000
-6.3957902400536755,-2.135881673684326,2.7579959740069255,30627000000
-7.382478242247074,-2.34990087663222,2.7588941793064414,30632000000
20.660598650709616,6.906798421656573,2.7422118746746498,30637000000
-3.443127958511786,-1.0216045174205142,2.7418804632767064,30642000000
-4.717293738552954,-1.24622618979735,2.7423063484111543,30647000000
-6.075304400509933,-1.5248268848853463,2.742864334112537,30652000000
33.169576327358044,-18.00628237906007,2.718357774437642,30657000000
74.24031022371179,-15.626642744529699,2.6777078415397004,30662000000
17.043541558493107,-4.690465291185286,2.6655051357089414,30667000000
-2.525791341363855,-0.22336704136436372,2.6624146635701806,30672000000
-8.424263870312197,1.83599531652667,2.6624628072894483,30677000000
-8.731062352213309,-0.8985522788789346,2.662360237578304,30682000000
-2.483811894749709,0.7261837018477908,2.660211711008983,30687000000
-0.18827901393512617,1.3174046686736345,2.65592032384399,30692000000
4.208365202621413,1.26970481211944,2.6510624142142367,30697000000
1.3959306248471333,1.5937440649955785,2.6477142646186946,30702000000
0.5186559572198656,1.724504483292022,2.6456898651778133,30707000000
-0.9173197168733487,2.0604723171777346,2.6413563740440753,30712000000
-0.9325160791476911,1.7565591997835712,2.637652341551831,30717000000
1.9287225345503354,1.1456068059392037,2.6335045909517656,30722000000
-34.28120358157809,2.125991571361934,2.5945473758662656,30727000000
-16.343014337675253,0.39092841975256887,2.556227420495251,30732000000
7.788956093605045,0.9169983561618216,2.560105918403939,30737000000
4.373396748347554,1.266349550892047,2.5618392864315096,30742000000
0.9931290093454833,1.0144897315597914,2.5625074953037905,30747000000
-0.07556812511583402,1.1641800298037694,2.562505540049275,30752000000
-0.41141056872578025,1.0726634276799036,2.5612527351090133,30758000000
-0.33161606528432913,1.223348386601155,2.5614817773189005,30763000000
-0.7402079422706653,1.0817502085823618,2.5604063224466618,30768000000
-0.5730501630358805,1.331950754030589,2.5596102479788034,30773000000
-0.7048207808185768,1.2806947820715682,2.5590736280134645,30778000000
-0.5935075177814051,1.3759080294427781,2.55803868986388,30783000000
-0.7769371530202478,1.393967920389463,2.5571136740507856,30788000000
-0.710367600749413,1.464957734175073,2.5562134814281934,30793000000
-0.7913282648355137,1.6204479109721854,2.5551570368518814,30799000000
-0.7141530358686059,1.608799230288655,2.5538600338759556,30804000000
-0.7794185134075016,1.5236038851789493,2.552699979185463,30809000000
-0.7845022243150954,1.4486803000764152,2.5522107394249702,30814000000
-0.6007338902812852,1.4542683973965,2.5508355903201547,30819000000
-0.20162382188325711,1.4341443467809019,2.5502486488377656,30824000000
0.17792658268323205,1.3934189871046656,2.5495438418039438,30829000000
0.33222342475490524,1.3970786852046853,2.548828409727508,30834000000
0.3666961532324132,1.376745608642104,2.5484236585635296,30839000000
0.6209342294053153,1.3010136373276115,2.547579263485338,30844000000
0.29689680865648355,1.4120352511822332,2.5464472433058356,30849000000
0.27818569686052835,1.472429344056424,2.5453170687202347,30854000000
0.3090381452974472,1.4896567891458827,2.5438274668975556,30859000000
0.33494021263031043,1.5260270872617374,2.5430795451128843,30864000000
0.3190024343852107,1.5624346854888005,2.5413090442201907,30869000000
0.3217857242453366,1.567550173178923,2.540509881995222,30874000000
0.32849983242748626,1.5899017606123556,2.5390667047160447,30879000000
0.32829469013318385,1.6086599562812314,2.537359176890509,30884000000
0.2864193936304453,1.6928176889617665,2.5365610386316977,30889000000
0.30814701928298865,1.687327323257366,2.5352872695044084,30894000000
0.31002320471515127,1.7123272524408149,2.534259169643208,30901000000
0.320807193123299,1.7249345946157413,2.53262183684014,30906000000
0.29532416753266144,1.7815178212543106,2.531361453981991,30911000000
0.2862028039113784,1.7652803426409147,2.530069830808677,30916000000
0.26685372071472707,1.8001423834296446,2.5290448248963004,30921000000
0.26294219404873254,1.8705323940116247,2.5269443084853362,30927000000
0.27205009201316416,1.8729500982245149,2.5259068498590884,30932000000
0.24286283617754936,1.9034120761360258,2.5245482431296793,30937000000
0.25482298031117206,1.9338664728346604,2.5232269620650714,30942000000
0.23787972851957745,1.9284683390152653,2.522014672315162,30947000000
0.2278254947354128,1.9677983880040202,2.520971469938493,30952000000
0.21920202959828416,1.9670704933748009,2.5195306754441047,30957000000
0.22362687394340455,1.9748332315021175,2.5179593338385233,30962000000
0.2292345438751972,1.9991668841895656,2.516924391104391,30967000000
0.23987371661403262,2.0347170373533943,2.5150756157871137,30972000000
0.2492379742144533,2.0374355196413023,2.513745122193503,30977000000
0.2501432698559028,2.0902474340099118,2.512642410660577,30982000000
0.24380237297317237,2.1231977996193545,2.5110111039928036,30987000000
0.23556816558310656,2.128502746209836,2.509833911077942,30992000000
0.2248739510515195,2.150274278061597,2.508292509037076,30997000000
0.18980751303282892,2.1771911796569725,2.5069797827292053,31002000000
0.21406563096236292,2.1929321373677255,2.5059599490704283,31007000000
0.20727388875780167,2.222558209332829,2.5042276759631843,31012000000
0.24775748971278125,2.22589455381374,2.5028453171402507,31017000000
0.25466112865298246,2.259494627512654,2.501802545929622,31023000000
0.2474565870803523,2.31429849403904,2.4994759052838957,31031000000
0.23861328224878567,2.3112832294149754,2.4988663428184688,31037000000
0.2277451567811352,2.3460958605032025,2.4963289944007,31043000000
0.23971828459175795,2.3702046407275743,2.4953477445947896,31048000000
0.26983159264139833,2.392298492966177,2.494357550616663,31053000000
0.22414970912997229,2.4169077165701887,2.4931722440499704,31058000000
0.26271479455440994,2.412129107223322,2.49238776276843,31063000000
0.2439803313157815,2.4265004424170824,2.4910812940271243,31068000000
0.24704262969749208,2.4356045563788844,2.489898121746824,31073000000
0.2600879032546669,2.4870883840409244,2.489000462282986,31078000000
0.2520721206688002,2.442176841641576,2.4876688049851725,31083000000
0.26142738709836555,2.4908662610157544,2.4868616242783403,31088000000
0.2659932751615242,2.5437603986206607,2.48591196334347,31093000000
0.26090675241507333,2.5529280464378257,2.484910545811466,31098000000
0.2623704489854433,2.5592376176122626,2.4836547730543703,31103000000
0.2696896246808024,2.569675008504652,2.4830329361220174,31108000000
0.3125327717065736,2.598377147220781,2.4818909321278833,31113000000
0.2611278053896898,2.6621123974559593,2.480654046973412,31118000000
0.29956110432749933,2.660151185806547,2.479403132342635,31123000000
0.31248955967413095,2.6574539566987547,2.4782237862984,31128000000
0.30095921193032416,2.692402552380162,2.477353433858679,31133000000
0.3167694794237723,2.6775001828053773,2.475431310525393,31138000000
0.3547991601404948,2.683279659676448,2.4738302600687287,31148000000
0.3229476387346613,2.717272765400984,2.472189635028094,31153000000
0.3396306666662636,2.723764526890507,2.4710144690191718,31158000000
0.33151217621920637,2.759970562494757,2.4699123585944696,31163000000
0.33170640182664535,2.7560898439021084,2.4679589726795736,31168000000
0.38750583772573716,2.769252939951461,2.4669959575866054,31173000000
0.37547326873524045,2.8041456869941337,2.465728200633789,31178000000
0.40465634128834665,2.822675622580575,2.4642734745959385,31183000000
0.37906280583507956,2.846723211808187,2.462938924804491,31188000000
0.3937729064464258,2.864156671446365,2.461894660762391,31193000000
0.41372244407354686,2.835722286494576,2.4606107387114613,31198000000
0.43685480288514195,2.891443131992681,2.4588787332467503,31203000000
0.440693677872264,2.858834163371679,2.45795303867202,31208000000
0.4450182119564065,2.886728499126831,2.456914069793874,31214000000
0.44793505655952814,2.8947376224584223,2.4548737250009016,31219000000
0.4613950442673038,2.913965414128841,2.4541774371670364,31224000000
0.45922523139454047,2.958844750728744,2.4528221018640846,31229000000
0.45716447519977005,2.9084746622930564,2.451761345290212,31234000000
0.4467893114121016,2.966142418074461,2.4509471987649967,31239000000
0.528680085733188,2.9417135803149432,2.4498236188961666,31244000000
0.4799522452175993,2.9645293003538784,2.4487803218615114,31249000000
0.4973889985658708,2.984298423092581,2.4477077478784235,31254000000
0.5269794040437307,2.9890178333894277,2.446885086113802,31259000000
0.538810538045284,3.015251090772788,2.446167823637629,31264000000
0.5363434947230957,2.9809739463116767,2.445144027936147,31269000000
0.5316933971690858,3.018305306328361,2.444239475931592,31274000000
0.5464471571921334,3.008092835625471,2.4436601873656567,31279000000
0.570464044202561,3.0300446728281623,2.4425144475051597,31286000000
0.5754111152902684,3.030156860599098,2.4416406335600254,31291000000
0.5792999470774454,3.0545256624493797,2.4407493153074955,31296000000
0.6092401409272731,3.0569611875978846,2.4397880663271687,31301000000
0.6260132567627884,3.0498890792367934,2.439007121430172,31306000000
0.6288475145068977,3.0547661572422102,2.4380687383072446,31311000000
0.6365435077595754,3.0712157288838884,2.4370343015283447,31316000000
0.6727482849744872,3.046257859829625,2.4360645109546772,31321000000
0.6779019171806026,3.1001008432989003,2.4356158614248593,31326000000
0.6988446412553911,3.091929308909484,2.4346767505885833,31331000000
0.7104301694845723,3.1046038501540623,2.4334155703501463,31336000000
0.694300723210049,3.0848286262149336,2.4323125887565418,31341000000
0.7336788236795414,3.0980925865104183,2.4315529011993866,31346000000
0.7798478924691377,3.095613725886986,2.4302890823173957,31351000000
0.7757935565863705,3.114246423160805,2.429626905624952,31356000000
0.7645076971243461,3.0590136843474447,2.428086596392231,31361000000
0.7502390494623222,3.0916622699082046,2.4274239955652894,31366000000
0.7911657700139457,3.0708809763164764,2.426470934257036,31371000000
0.7953858302086758,3.098492788324349,2.425489875366844,31376000000
0.8187386626373017,3.117322018518229,2.4242194087249676,31381000000
0.8367692083611853,3.1272903224762154,2.422487697593204,31386000000
0.823327479220949,3.122515424946006,2.4218004199345744,31391000000
0.8379298506228781,3.1164254076778644,2.420831502891924,31396000000
-44.31843647872201,16.58924481489314,2.394774054956204,31401000000
43.10430499056733,-13.648322270677024,2.4140041481297962,31406000000
15.661309862738543,9.735162566532447,2.4199177167906814,31411000000
-10.932628810575686,1.6038628690135046,2.4143501628788133,31416000000
-2.403527225221616,1.6587419949441282,2.413385049986427,31421000000
2.166075606836963,2.1528034280271364,2.4145563544526087,31426000000
3.102725747498692,3.1031035752211746,2.4141272155349416,31432000000
-6.420376699239437,3.169370332718835,2.405260840947884,31437000000
19.995646765753218,4.889677823182772,2.4156123805277097,31442000000
-7.152255513725218,2.971909551763346,2.411395200219638,31447000000
-2.945631013800266,1.9926783597055062,2.41025622836351,31452000000
-30.14325651155623,13.890768164456283,2.3864599862385587,31457000000
59.83991643939899,-15.16068691942098,2.410482544816039,31462000000
6.020688968053672,5.016230414903855,2.412823763979304,31467000000
-8.088786517901603,3.3235477117556784,2.408224914923066,31472000000
-8.864321770799936,4.75322269612598,2.396893367556757,31478000000
20.65903153902047,0.8726523750066129,2.4069351597507778,31483000000
-30.203557350895693,17.445725531661967,2.383408823051509,31488000000
21.108824226729652,-13.789316969092647,2.3914163850898547,31493000000
22.360327550128392,-1.5281913161124536,2.4029946324457807,31498000000
-22.002348707943987,13.843429403469669,2.381817283369584,31504000000
36.43778340746872,-14.704646603991634,2.396173006142137,31509000000
1.9599405653771984,2.235508994997138,2.397168451481012,31514000000
-7.970501525925277,6.790968906165375,2.3871901933751642,31519000000
10.91207539434616,-0.6720544116337684,2.392898610683621,31524000000
-14.668969273079925,9.007249502317665,2.3795833614938857,31529000000
17.280174271483105,-3.2354690615163086,2.3883761720581336,31534000000
-1.1053799262396633,4.505329339823301,2.382514656992056,31539000000
-17.44743651690814,15.493362493506558,2.3708294835284405,31544000000
17.413581423418268,-7.975465644219463,2.379291600082341,31549000000
-1.2620420578029476,4.546766481771344,2.3743742104987406,31554000000
-1.219150561065796,4.116647234137367,2.3692949343704823,31559000000
4.371263843658792,1.7075305017237739,2.3688580696843253,31564000000
1.1384105301984686,2.829268143685983,2.3656520171966475,31569000000
-50.04177529737221,44.16388672183354,2.3570279788673125,31575000000
-1.1134232191379987,0.8562006054440175,2.348556909374804,31580000000
-1.196388877359749,-1.093912720127953,2.344975507805168,31585000000
-4.77790070859999,2.7458007548481502,2.339214055445198,31590000000
-9.876058547726428,8.328017314181979,2.333336039351704,31595000000
-7.665034702718561,6.451500581209534,2.320258858596345,31600000000
-8.01385081901305,7.8971897150690324,2.313105312481446,31605000000
-11.674936115030848,11.919512002181705,2.3024153486754013,31610000000
-7.788836873926898,8.120844812017179,2.2949500569613823,31615000000
-11.624037334001862,12.302308229167798,2.2838136929367896,31620000000
-7.642386436342651,8.08631934599266,2.2768406458256867,31625000000
-7.899734264968534,1.0480342398702005,2.273056753927926,31630000000
0.7368065352090217,1.597360700456926,2.271562008392961,31635000000
0.7579170000422031,1.5477012864942787,2.269671760181059,31640000000
1.5352472281205898,-0.3644627163709751,2.268500302202235,31645000000
-0.016898566266789043,3.4027312915535406,2.2652464945185864,31650000000
2.038471500300232,-1.315664280814771,2.2629501729359847,31655000000
-0.46416663388319146,4.328911071336363,2.2579211963926764,31660000000
2.37119589903116,-2.1354390397776704,2.2553750549809553,31666000000
1.0246014651688549,0.9540227077338184,2.249449036389869,31671000000
-1.0391692441855889,5.09928293612525,2.2422203494407644,31676000000
0.7364077485215584,-0.13439254247249646,2.2383238284814087,31681000000
0.751707565901443,-1.2238397251100879,2.2321045064721354,31686000000
3.2314347272687938,-7.581883546151071,2.228563830703448,31691000000
-1.9015435213527372,1.6586756930693327,2.221446891290128,31696000000
3.2621988066575422,-10.329263861456337,2.2176482557672346,31701000000
0.7150271938461702,-4.197947261388145,2.2139696168457763,31706000000
-0.3077469997241175,1.8529487860641694,2.2045225871182432,31711000000
6.27185679898039,-1.6710442847212779,2.2034684007769183,31716000000
1.3281872229463496,4.145018763162458,2.1969625179019916,31722000000
5.241563664876502,1.4204152723757066,2.194307325496575,31727000000
6.193525055708459,1.2380427130945622,2.1911188519347093,31732000000
24.407165920460958,-3.31792281970341,2.198825449588156,31737000000
22.454085507688248,0.5585485438998202,2.202606464068867,31742000000
29.512842347865558,-4.188697787994002,2.213205326839978,31747000000
24.93637796543191,-0.2349909302685331,2.218484477844391,31752000000
0.35444624623892934,1.064999801670792,2.2140522381035175,31757000000
-6.267022762059878,5.716114592237738,2.2043640671599984,31762000000
-1.872071337193096,5.020419296205108,2.1969144346722604,31767000000
0.1769969170227176,3.8802878337079068,2.19119270636557,31772000000
4.3709684576033565,-5.573034070169545,2.19306742611221,31777000000
1.3290081994082323,2.717461825346002,2.186819411185094,31782000000
0.8419725566458299,3.32236528009791,2.180803729120223,31787000000
0.5256069230613267,3.9562370870970853,2.1745063993472398,31792000000
-0.08108055012330707,5.2733410410115455,2.1664778100362687,31797000000
3.938492077197913,-5.843150203336785,2.1678313173538397,31802000000
0.6252399312007234,3.90853622764445,2.160196677828659,31807000000
0.9910610637922531,-0.34534628080304186,2.1605404570572047,31812000000
1.6471904654763778,3.39390892054358,2.151628794611608,31817000000
0.18521700099836652,1.09124535330783,2.1516815934409292,31822000000
1.249214528688659,4.809509732543971,2.1438516297191934,31827000000
1.463197656274219,-0.22010826967719846,2.144478166775138,31832000000
-0.5437067049760225,2.656058651505888,2.14510092751054,31837000000
2.57767863941493,2.569876748522652,2.1401999117887787,31842000000
-0.41782076421904324,1.818858050233919,2.140528891129507,31847000000
-6.218325711063031,7.271405531015377,2.133272679362947,31852000000
8.262647775231159,-1.7341672041855514,2.1366511893285787,31857000000
3.053500413379503,1.721780251657888,2.1373844503653703,31863000000
0.5236143475396688,1.8485604017273658,2.136634488520736,31868000000
0.5962090446615042,1.8770179765629402,2.134990964852506,31873000000
-9.538060449558447,2.108507565481831,2.131744785504945,31878000000
13.28759318117528,4.356197885157303,2.1368813588580546,31883000000
-1.2684066862721017,1.3442374821525584,2.1352408013668613,31888000000
1.018721157356395,1.3887912581090756,2.1342033132236433,31893000000
0.8226681721368517,1.690292984308182,2.1332140533917006,31898000000
0.7685013886005475,1.851515390407035,2.1325095312528664,31903000000
0.7452964553688635,1.9769440689302802,2.131293802479222,31908000000
0.749235368611918,2.021017622066339,2.1301709004000964,31913000000
0.7144410173884648,2.0431402778523937,2.12930248101594,31918000000
0.7357704434107621,2.006537097533087,2.1288657337955748,31923000000
0.7364288775750056,2.009868681371785,2.127752248166438,31928000000
0.7199658684208547,2.016919047886675,2.127272741268146,31933000000
0.6958637937188461,2.004996738917261,2.1263570931016336,31938000000
0.6712684739254068,1.996817370701124,2.1254093480807708,31943000000
0.6570066651744523,1.9757341870126843,2.1246875179964353,31948000000
0.6680167877734536,1.9908383309940005,2.123428560309977,31953000000
0.6487645973597203,1.9409393103912271,2.1230323561953903,31958000000
0.6289587099227699,1.9558151860794861,2.1224013566026265,31963000000
0.6323175736456378,1.968264547100795,2.121697920644315,31968000000
0.5645876293762153,1.9307015966041716,2.121210496005017,31973000000
0.5635499879406951,1.900056471134861,2.1201579555108827,31978000000
0.5599829068990231,1.9240958902277288,2.120019529466982,31983000000
0.5289136440999137,1.869194321176377,2.1183409560924096,31993000000
0.5043158488961506,1.8701903158909368,2.117426507353848,31998000000
0.49901729892534663,1.834949151850903,2.1164626849364856,32003000000
0.4973703199090447,1.8261115728703479,2.1157508678239068,32009000000
0.4379347005853799,1.8203499176506583,2.115103341137199,32014000000
0.4187307796921751,1.812100024886392,2.114291082304255,32019000000
0.40978670288472346,1.764534713869828,2.1138470699176817,32024000000
0.39184766246642555,1.7965712852956028,2.112897688674624,32029000000
0.37894392119842313,1.7763496877238412,2.112342069460864,32034000000
0.33053076560254235,1.7428909668920058,2.1112588172369353,32039000000
0.3430546753091375,1.735388577423126,2.1105641543024216,32044000000
0.3301964322182156,1.7176460995483789,2.11030312163155,32049000000
0.29484621194203753,1.7056630262001302,2.109155900889444,32054000000
0.30303894777511453,1.6917876688787956,2.108326269734625,32059000000
0.2689054192049874,1.6741043974061833,2.10723879900239,32064000000
0.24759761020007776,1.6927068679855928,2.1059268157215945,32069000000
0.26435080815826517,1.6537236734538499,2.104784705428518,32074000000
0.21829290718683725,1.65244780305752,2.1043012907463106,32079000000
0.15471387019530156,1.6411668928615981,2.1029833113358185,32084000000
0.2069846261393921,1.6357916315656669,2.101626287794954,32089000000
0.18638886446050423,1.6189655144223787,2.100914062244454,32094000000
0.15751747981632447,1.599236538673212,2.0991294931540776,32100000000
0.14098652150773405,1.5807862759725986,2.0983700176470665,32105000000
0.09280540198759829,1.5862777004252684,2.097553998093114,32110000000
0.07336017249925264,1.5394500138717122,2.0957768586613974,32115000000
0.05584580980851389,1.5461705058451203,2.094822894084089,32120000000
0.03313802512335168,1.553349818903527,2.0937017658952954,32125000000
0.012195078608630113,1.522572102892897,2.0927157480505825,32130000000
-0.016807237060143553,1.5092794713345434,2.0908847652039424,32135000000
-0.01929759542275406,1.4775508092248033,2.0899769868736966,32140000000
-0.024745570622618417,1.4788824313770645,2.0880638780980565,32149000000
-0.07894480295629817,1.4783411015466854,2.0868123911734866,32154000000
-0.10284940156711946,1.460622569551539,2.0860891596657236,32159000000
-0.11573399211729561,1.4691550479401885,2.0843258958375412,32165000000
-0.148954351543494,1.4231366578197957,2.0835625217344997,32170000000
-0.12964841918352576,1.395565325160741,2.0821320406906185,32177000000
-0.1632726129963606,1.3979356150815212,2.081133397543192,32182000000
-0.21077482062723465,1.3769555007064773,2.080581396386308,32187000000
-0.22960434893240267,1.3408907981029317,2.079208296034748,32192000000
-0.2645088965341479,1.3407190914855172,2.0780913560579326,32197000000
-0.27646771992899016,1.366323233587604,2.0772257762543296,32202000000
-0.29607892952234616,1.343052223058614,2.0761233252173077,32207000000
-0.34228874063345666,1.3095928024764985,2.075445522855018,32212000000
-0.30252585442450675,1.2864834955337205,2.0743333032257083,32217000000
-0.3721423817804162,1.3103919362725422,2.0733135095065847,32222000000
-0.39092062152113627,1.2935575604667577,2.0727318695392287,32227000000
-0.39962189528097203,1.3035607691639863,2.0711926076063407,32234000000
-0.4360316149156999,1.2551815490498557,2.069597244425025,32239000000
-0.4245514575371946,1.2411346415573632,2.068765282563791,32244000000
-0.4608587103908169,1.219174326226646,2.067307205120184,32249000000
-0.49148138961813276,1.232046309909038,2.0663766362484415,32254000000
-0.5080742726954479,1.2089631341857459,2.0645768146257444,32259000000
-0.5093967239391203,1.208482057089032,2.063753785238997,32264000000
-0.5839974814525258,1.2122431083735161,2.0628482593246225,32269000000
-0.5789064274728718,1.203772507465333,2.0611392983669705,32274000000
-0.6030407322481977,1.159159529778627,2.0600604824080646,32279000000
-0.6127322761715907,1.1705102729713859,2.0579842595785833,32284000000
-0.6509194556044968,1.1538649101308156,2.057485730002154,32289000000
-0.6779646753594962,1.1531229592219778,2.0555056142905337,32294000000
-0.7261795692775053,1.11363277755896,2.053906178785821,32299000000
-0.7094027279299261,1.152770168046903,2.0526139349528485,32304000000
-0.7529802481868504,1.0998115263293384,2.051074912932111,32309000000
-0.7745271024580048,1.0918769027993906,2.049563305434904,32314000000
-0.7925040997768505,1.096271257272796,2.047882000070289,32319000000
-0.8405365986105465,1.0910577166539643,2.0467747663681752,32324000000
-0.8121002716059873,1.084115878584939,2.0448458346376213,32329000000
-0.8646651361312382,1.068986901391463,2.043364789493148,32334000000
-0.9034867193584374,1.0639624390313556,2.041948885856913,32339000000
-0.9065975311234032,1.045681071772183,2.0405754250195414,32344000000
-0.9479646665294537,1.0342404573149995,2.038811796678731,32349000000
-0.9556722946080196,0.9590353568808248,2.0378279565888047,32354000000
-0.9741034837750085,0.9853203420483292,2.0369420650284784,32359000000
-1.0191899982438628,0.9900850011252158,2.0351916838765503,32364000000
-1.0111802156950966,0.9905725724654169,2.033533210773322,32369000000
-1.0391197722668772,1.0252250288442024,2.0316744879851476,32374000000
15.598354873462778,0.8566875427223019,1.9938632775172256,32379000000
-5.476479872696915,0.9661278894446884,1.9227018174271429,32384000000
-1.0289575611166186,1.5221939705459515,1.8560352615729094,32389000000
-0.5068495909173621,1.1477724006804693,1.7950661361532017,32394000000
-0.8306986422322097,0.6919160559508516,1.737419951966101,32399000000
-1.2105056300638648,0.8878919368791556,1.68250937196968,32404000000
3.963115305001472,0.38399449357018,1.6074641345171625,32409000000
-1.7261911761851434,1.293707165818106,1.5020850149158875,32414000000
-0.913590915385478,0.982261907738038,1.4387983471297483,32419000000
-1.372803903270557,0.9395704450968655,1.3654397476292537,32424000000
-2.0626005558340657,0.8860805036330954,1.2945554456958879,32429000000
0.778201437843373,0.7498693989451677,1.215176901969901,32434000000
0.707401828458818,0.6868706541362704,1.123524259035974,32439000000
0.15715999300516192,0.6255074029714207,0.995914464262982,32444000000
0.005245608432131652,0.5688123034051487,0.9043015306106634,32449000000
-0.9639322376182886,0.5515768348689507,0.788577219408864,32454000000
-1.5756651625686442,0.5332741423789175,0.6774498084852113,32459000000
-2.1236775244839885,0.5077411380580402,0.5778319745843565,32464000000
-2.237219654290374,0.4652377144185341,0.4806422366010349,32469000000
-1.837499315135498,0.38261630084374537,0.4311739746165033,32474000000
-1.7251230803083712,0.2880350034876943,0.388918590745142,32479000000
-1.6361933285629422,0.2093923241406936,0.36840518284583446,32484000000
-1.730320191442309,0.21206602235914737,0.36977599079310014,32489000000
-1.7335852806696812,0.2060596013590859,0.3906015259966559,32494000000
-1.7729719204220649,0.20819585085593176,0.4377740120846928,32499000000
-1.7640477801830754,0.19201166033475772,0.4796298888132873,32504000000
-1.8060020843690143,0.22576947243550557,0.5638586794457439,32512000000
-1.8384329488704105,0.2707400538839654,0.7002839311669602,32522000000
-1.8647131123522005,0.33110682919164075,0.7809784461537003,32530000000
-1.880092276433225,0.3703690929181475,0.8174858782185753,32535000000
-1.8843579672586122,0.3848206714789886,0.841169075836642,32540000000
-1.892560434549385,0.41838398971472796,0.8524237342518389,32545000000
-1.9391744048397124,0.4399667829374149,0.8498957875373031,32550000000
-1.9578124240918933,0.4236469732098778,0.8368059655116077,32555000000
-2.0009758847153334,0.45870687809215227,0.8130766084846983,32560000000
-2.0840799298237003,0.36089047652131984,0.7757064513272363,32566000000
-2.060912138311195,0.4037480152334412,0.7396222567797234,32571000000
-2.10007356279455,0.3851714141308896,0.6796926130544165,32581000000
-2.1598302817771486,0.33543045987617437,0.6589607545219824,32586000000
-2.180203266862975,0.30310089513369315,0.6100220420961541,32591000000
-2.176004941027521,0.2574686111778297,0.5841157116720052,32596000000
-2.2232143095539776,0.2546503403112663,0.5675201167420729,32602000000
-2.2520774923894242,0.2714343051254121,0.5651195501962852,32607000000
-2.267679857246977,0.2457101113501731,0.565523753408624,32612000000
-6.941534350401547,-3.4066023330753152,0.5717451538671011,32617000000
3.5950007811804765,6.032827382005455,0.5787369308893384,32622000000
-18.699687561951258,-10.489140537644113,0.5918577690385091,32627000000
16.78787038994986,13.193780243000868,0.5897143109730856,32632000000
-20.849116323042605,-12.022514782618131,0.5972998939247366,32637000000
16.521721493414105,12.839907843624449,0.5929962093766956,32642000000
-3.4620122270452613,-0.13352049155608003,0.5950247442158626,32647000000
-3.059095141897783,-0.17451856011985406,0.5964036102126348,32652000000
-25.795695991973293,-14.025368863215967,0.5988406157185755,32657000000
-3.0676960449276742,-0.015258119247105024,0.600888297922725,32664000000
-7.021608131093889,-5.194054099980818,0.601824262761243,32669000000
-13.55410716788209,-7.04799464243166,0.6042102904091157,32674000000
-13.608966181227602,2.1370698915287187,0.6117249927549282,32679000000
-6.477490484245507,1.0475307675763228,0.6128373454591403,32684000000
-11.607643188183676,1.8958159740115665,0.620186328794506,32689000000
-10.150276628520295,1.683253564776997,0.625272015488102,32694000000
-11.84112112124974,2.018278685245502,0.6296853059340873,32699000000
-13.326788908484083,2.2792162682401487,0.6364374850949234,32704000000
-10.913131565719581,1.8542914339617194,0.6412884884068039,32709000000
-2.1923117145772753,0.009053597177283289,0.6420901439006476,32714000000
-3.6562831185341786,-0.03032753392946696,0.6437110275730119,32719000000
-2.189295586208498,0.0021439824749236386,0.6443053025711061,32724000000
-2.7834822088965283,0.011717756817241144,0.6454892945058746,32729000000
-2.771178227445605,0.003951108749999504,0.6463099895540919,32734000000
-2.570498913126404,-0.005743757295736854,0.6476920417111101,32739000000
-3.707392409674922,0.002548949012503323,0.6491551324227189,32744000000
-2.2991954580126777,0.0039637858782914075,0.6500557149520475,32749000000
-18.185935400205317,-0.7199604572261734,0.6425123061755122,32754000000
-5.6855573716978425,0.7374175105628218,0.6401228166888526,32759000000
-2.938067143869192,0.004683209210428252,0.6393667770696568,32764000000
-2.3535282038806415,-0.007731742179661019,0.6386733199521591,32769000000
-2.9173432836314377,-0.007795767793360435,0.6371816644720535,32774000000
-3.706449253225322,0.009458760560150596,0.6358264130768061,32779000000
-3.02488990110669,0.038678607285073635,0.6348519032630671,32784000000
-3.0126537897437426,0.0005813171362484687,0.6330179361030901,32789000000
-2.4673484737491913,0.029521864816172187,0.6325767952983498,32794000000
-3.1136506619068136,0.01609919540352655,0.631391208266058,32799000000
-3.8047308362369754,0.06593334151247872,0.6302313201121578,32804000000
-3.145164107367533,0.03888513513516912,0.6287496915756728,32809000000
-3.140580530599418,0.06367667013764293,0.6271110066702187,32815000000
-3.203429796612265,0.04084823862499478,0.62584800182047,32820000000
-3.178396693194156,0.04834859679524882,0.6245601540902374,32825000000
-2.6297083762091438,0.03012374141076006,0.6233402620738849,32830000000
-3.2571933959742547,0.05403604556255095,0.6227465025580524,32835000000
-3.6269934526163796,0.08163799449529943,0.6214739774394721,32840000000
-2.497663654510046,0.054006513161582795,0.620266629575876,32845000000
-3.608837057057008,0.0800684511502508,0.6176605904812552,32854000000
-3.343040585118501,0.09065214690671622,0.6162064130933513,32859000000
-3.3607429746944666,0.08860150831919804,0.6150014077217748,32864000000
-3.378405205946815,0.10658721615868694,0.6138309811619406,32869000000
-3.395683166717826,0.0912955073078114,0.6121878391422142,32874000000
-3.390240648320884,0.11052284352591321,0.6114604684890185,32879000000
-3.4272157031965675,0.0691566402803538,0.6101107925553543,32884000000
-3.4610764980901365,0.06587652987773018,0.6081016781687065,32890000000
-3.5063140645514026,0.09091615524505957,0.6073282389770788,32895000000
-3.5424519802060046,0.1129621182837303,0.6041014799037184,32905000000
-3.567573463155181,0.08354966138415955,0.6030799597605421,32910000000
-3.568282448202232,0.10533659857020625,0.6016446019694387,32915000000
-3.5848708410781325,0.05564570345640406,0.6007656356857035,32920000000
-3.602238600571342,0.09632063639153404,0.5994752929372681,32925000000
-3.6194854914605745,0.10099520083452825,0.5981814296635686,32930000000
-3.6579964158063847,0.10604666972736192,0.5968723245059697,32935000000
-3.681271881268866,0.13230897197701452,0.5953271773545525,32940000000
-3.7163297682430763,0.11319092669391782,0.5940180769001113,32945000000
-3.67331652252317,0.10398335733832446,0.5923248767431684,32950000000
-3.709278209904847,0.09955098684589564,0.5907794353978202,32955000000
-3.729600116259059,0.08606033807853594,0.5896369999215886,32960000000
-3.780782262605978,0.10449280466327422,0.5886904889743024,32965000000
-3.7846986722343985,0.12893222996573653,0.5867397383473553,32971000000
-3.781493374501741,0.09972654977809474,0.5851971744142088,32976000000
-3.786082842053448,0.11203413835345101,0.5840991853981258,32981000000
-3.847871674384254,0.10497833222900088,0.5824895023375555,32986000000
-3.8405864885329164,0.13757619160267476,0.5811082938294545,32991000000
-3.8581742751418657,0.08567326214319594,0.5793739864110509,32996000000
-3.865452641553331,0.09461958956849184,0.5778100937111467,33001000000
-3.871482934535015,0.11757182219090033,0.5770357404689379,33006000000
-3.8732428185030994,0.0749416838904486,0.5749884065846412,33011000000
-3.8998217143621856,0.10638451063847208,0.5733174908672691,33016000000
-3.902076160908915,0.10611478421122801,0.5722227571824584,33021000000
-3.956237301538339,0.09178397372178707,0.5698325254986771,33028000000
-3.9619838075393883,0.10125005733608312,0.5685503593620364,33033000000
-3.988885108962018,0.0808816737066683,0.5666337512423035,33038000000
-4.0069863832538575,0.11196698408626923,0.5657518406630144,33043000000
-4.0161548712816,0.10031070907101163,0.5634528432721326,33048000000
-4.026838974284972,0.11062052111469427,0.5626087387579766,33053000000
-4.072233292585824,0.07535418328132965,0.5604051927501466,33058000000
-4.102304601603163,0.12130091942726562,0.5586651707419686,33064000000
-4.068153026845093,0.06668675761170952,0.5571185047398755,33069000000
-4.112917838421777,0.09147296969901357,0.555746113972801,33076000000
-4.123126877307113,0.07210651965256601,0.5531513892412776,33081000000
-4.152094901874372,0.11321364694579589,0.5519260842531326,33086000000
-4.184735168296698,0.08745753765930112,0.5507123720428018,33091000000
-4.206062215785203,0.09855172797742816,0.5485373775255484,33096000000
-4.213921221976526,0.0721481048808862,0.5475727286008879,33101000000
-4.237286389504243,0.06570493368000643,0.5446533924036658,33109000000
-4.236275895035661,0.07763240077314809,0.5433704175307665,33114000000
-4.2435823877951595,0.05632734714632168,0.5414942431051933,33119000000
-4.280232748906998,0.08649862471464849,0.5402132741855867,33124000000
-4.301160230356187,0.06851686911394005,0.5389149407794215,33129000000
-4.269031755413582,0.0858343406741807,0.5375048758912522,33134000000
-4.318982990958562,0.04650437877433306,0.5355428994643952,33139000000
-4.336685258418898,0.04390689824348039,0.5338231534166574,33144000000
-4.324131902563253,0.03149673184822459,0.5324061041366385,33149000000
-4.364591981205771,0.058778147386345375,0.530740304851369,33154000000
-4.387506091205573,0.032447434633590275,0.5293622696537496,33159000000
-4.3659906062970855,0.0401463597187281,0.526939834410466,33164000000
-4.401407128347566,0.03544989367133333,0.5259013376155697,33169000000
-4.430223568940053,0.04538606146573847,0.5244250484149783,33174000000
-4.4242908254439985,0.03648350318716395,0.5222136766894789,33179000000
-4.432497086601194,0.028376265054068348,0.5208727409481938,33184000000
-4.454227007026817,0.011756967387979902,0.5194146734165977,33189000000
-4.461298655209648,-0.004160214050202454,0.5173265410558261,33194000000
-4.482152042936579,0.004358309103862606,0.5156568280069131,33199000000
-4.46065877430995,-0.008965282521345038,0.5137669127903662,33204000000
-4.4880328622058725,-0.03437516595262356,0.5121184316714825,33209000000
8.329948491809347,0.5224390327067926,0.5086976430683827,33214000000
-3.5777456359600133,-0.6384022655015775,0.5096586857449343,33219000000
-3.6217858044270517,-0.0017289472379883016,0.5109506183322235,33224000000
-5.123398619238617,-0.003356249362636175,0.5133697157722216,33229000000
-3.6866546027603087,0.0014420941727515506,0.5148077297804964,33234000000
-4.579386375203352,-0.016941205513131094,0.5161196241394397,33239000000
-4.8396604801703,-0.004531228859184489,0.518544830459992,33244000000
-5.03178436038415,-0.027444647410126102,0.5224986381625365,33254000000
-4.587338702444449,-0.04016850846012082,0.524378075276042,33259000000
-4.621681009171966,-0.01726741069216236,0.5258822640724375,33264000000
-3.7085874313247547,-0.021894839662478818,0.5275359426247699,33269000000
-4.445212813045695,-0.03424395107470043,0.5294656956398182,33275000000
-4.865228307860607,-0.038343448887155324,0.531766262638256,33280000000
-5.378637550024916,-0.029813941919063204,0.5337239929825504,33285000000
-3.7751261073417095,-0.010546828634528566,0.5358638868784542,33290000000
-5.859530242564036,-0.04374275514505874,0.5377957805370676,33295000000
-3.80334234443446,-0.023866334866595403,0.5391631545565457,33300000000
-5.488600315421007,-0.04168405187303603,0.5422126005418324,33305000000
-3.8111811497262456,-0.010880281797120417,0.5433719516543917,33310000000
-5.896779781468277,-0.05558553702218865,0.5455027558301176,33315000000
-3.842278080859259,-0.016894229738335813,0.5471314005176644,33320000000
-5.584297158488406,-0.06286615448536184,0.5495739715793276,33325000000
-3.847272187435904,-0.04068774579590238,0.5505848088679174,33330000000
-5.924136351637753,-0.05518117187772193,0.5535967293183238,33335000000
-3.823157211936208,-0.029397649461243958,0.5549906420506269,33340000000
-5.6514519966742895,-0.052089235750952895,0.5577274940921699,33345000000
-3.8718568251447496,-0.044347160056320535,0.5589887322875815,33350000000
-4.947835156889197,-0.04240556642894967,0.5612990935177633,33355000000
-4.874170761357768,-0.056199264968980325,0.5628512084404497,33360000000
-4.885372059760706,-0.06204696753597145,0.5661617419575606,33368000000
-5.759212064974991,-0.0606968335925097,0.5685111354318387,33373000000
-3.9484682486093723,-0.02072158815432667,0.5700253139009293,33378000000
-4.918119804870761,-0.01925475535479433,0.5718495944079101,33383000000
-5.030283562091486,-0.04920191497081796,0.5733693030501814,33388000000
-4.84943567455699,-0.028904405293802934,0.5758949365473787,33393000000
-4.96009912770051,-0.049960783247769994,0.5776320111448429,33398000000
-5.0024029248332464,-0.012843192919735139,0.5802558115658051,33403000000
-4.994210769656439,-0.004035518790507956,0.5821064611214132,33408000000
-5.914216364631331,-0.01936005915628243,0.5837919302237569,33413000000
-4.006018988950071,-0.01391853224169452,0.5851768759586543,33418000000
-5.721257425719044,0.04919111425720706,0.5888759461055874,33424000000
-5.042908609749963,-0.006156355129580077,0.5905333522065166,33429000000
-4.044719840216471,0.016208775053437326,0.592409750585263,33434000000
-6.111710355038823,0.009488987751446201,0.5947664342006257,33439000000
-4.034769957437112,0.06291784348821527,0.5960867911699859,33444000000
-19.169450425546888,-1.3869697758551545,0.5900124402484459,33449000000
-10.071973840774215,2.514275805426346,0.5880467512940238,33454000000
-5.064796406340212,0.046279812620527466,0.585183368600478,33459000000
-5.096218445968453,0.0331409899986527,0.5835436283056068,33464000000
-5.091610243206547,0.034505288342537105,0.5808955039144565,33469000000
-5.108776405769675,0.013373848802674063,0.5789328451195175,33474000000
-5.103949033798026,0.026665191485214998,0.5772397795639111,33479000000
-5.136066749417197,0.046931893692232836,0.5755778740372446,33484000000
-5.130458834223506,0.04411765428122775,0.5730934833055609,33489000000
-5.153272012897846,0.023840085834184666,0.5714662417739131,33494000000
-5.1725324813093625,0.005221970627460527,0.5692030747518827,33499000000
-5.201668938655788,0.00771921554843677,0.5676241397382376,33504000000
-5.195689050293007,0.032839956461340476,0.5649947461960021,33509000000
-5.175663941300415,0.057006044512885684,0.5631763712209453,33514000000
-5.210958272793589,0.07097544845427171,0.5614596391530393,33519000000
-5.1941758933507405,0.07687697733770946,0.5593096590590819,33524000000
-5.20879847667403,0.051944717900474946,0.557263591791726,33529000000
-5.221428426545816,0.07844222043038346,0.5552253506377313,33534000000
-5.252446081452625,0.06472018982380938,0.5526774705817302,33539000000
-5.258385443210282,0.04420721819023833,0.5514656599333626,33544000000
-5.262117043429441,0.07126997546926916,0.549235898066833,33549000000
-5.269584260659997,0.0869774228872541,0.5477186392123732,33554000000
-5.259809713220669,0.0716962694104356,0.5456776920183546,33559000000
-5.294678112748701,0.06363511033778808,0.5436618017317869,33564000000
-5.2896321707767395,0.04387830203727548,0.540916068288906,33569000000
-5.320317150083121,0.07363330049558295,0.5392338909512736,33574000000
-5.300352099361253,0.08433572567263248,0.5373395088417564,33579000000
-5.342923825690436,0.08234375484711928,0.534987232699521,33584000000
-5.316253730694789,0.06293825428949623,0.5334214660527772,33589000000
-5.329333114038475,0.07739417705082809,0.531570626437528,33594000000
-5.324910180135564,0.07857613960917584,0.5292527853391721,33599000000
-5.327345211173694,0.10189320550315382,0.5273404412504453,33604000000
-5.345269034662484,0.07138397953080348,0.5246476920399306,33609000000
-5.339390751968181,0.08387555342621235,0.5232856841925912,33614000000
-5.377547466045875,0.09113984854041215,0.5205102101218867,33619000000
-5.376157677232026,0.09670130040955371,0.5191814364831925,33624000000
-5.389047586261164,0.10916430020554688,0.5166644953044603,33629000000
-5.365770805757199,0.08504031581988394,0.5145636765675615,33634000000
-5.422981688643596,0.07808913740275257,0.5130301886378785,33639000000
-5.3924400403840025,0.10617076553779725,0.511175801168103,33644000000
-5.406877451998173,0.09460937303466921,0.5089891232778759,33649000000
-5.440627652550326,0.10663917875362935,0.506666626537926,33654000000
-5.40224814732549,0.09307949650448646,0.5047963913790674,33659000000
-5.4397315961408035,0.08386573473465812,0.5024675483248562,33664000000
-5.453321258780858,0.10569823276358974,0.5009639191463879,33669000000
-5.4608182505909415,0.02588613402251439,0.49844924390287587,33674000000
-5.435101163384088,0.08158647260422112,0.4968018862132876,33679000000
-5.461483669255424,0.0877895616381392,0.49464039953230415,33684000000
-5.486953611017823,0.07977328735747066,0.4919957459990461,33689000000
-5.490002543462931,0.08621011763725202,0.48988387463887034,33694000000
-5.481570548459735,0.09606517228813388,0.4886797069085269,33699000000
-5.47643675394985,0.05051869415524843,0.486651732588354,33704000000
-5.523931455457787,0.10391132700072508,0.48415907044334067,33709000000
-5.542850637154781,0.06680114917981336,0.48210171089407666,33714000000
-5.51004946142611,0.05878706934834427,0.4799277277307138,33719000000
-5.5222684988082165,0.04375979465790857,0.47784529200188347,33724000000
-5.503517363500693,0.05232733212907224,0.47613856474661853,33729000000
-5.5388910310869415,0.06847900685071365,0.47365515627149124,33734000000
-5.5212034772418335,0.08117593004158274,0.47101024080032333,33739000000
-5.5416529040109745,0.06181583667786064,0.46957398971866454,33744000000
-5.57515932973563,0.04609515090605651,0.4668343155017697,33749000000
-5.542835967566774,0.024373876616668344,0.464518997860341,33754000000
-5.585161053028088,0.032356471823790416,0.46279888018042353,33759000000
-5.565721880050748,0.022691069432438267,0.46111796782857667,33764000000
-5.597721539378042,0.05681985454714432,0.4583431384857231,33769000000
-5.581776030345289,0.06917298055808513,0.45610421675081014,33775000000
-5.604699372153074,0.029090751213534022,0.45350913374553714,33780000000
-5.5999808859625535,-0.0049388370587742335,0.4520400068003687,33785000000
-5.603104198605847,-0.029092870588806767,0.44917380744279894,33790000000
-5.606075821219221,0.0071276512825641835,0.44715888150993977,33795000000
-5.599173601251616,0.010801337036078853,0.4452544565038884,33800000000
-5.622901282582732,0.022299353730425783,0.4432698563058328,33805000000
-5.641198113061417,0.015193684110786776,0.440837794419525,33810000000
3.9877062264463055,-1.6263628863011184,0.4382205785525044,33815000000
-4.059467742361381,1.5735292580013904,0.4399507132726649,33820000000
-4.515668623135317,0.0001427377169477299,0.44221847801792175,33825000000
-5.774638075327371,0.019689385353645835,0.44482744063763535,33831000000
-5.670915281466691,-0.02931099948063582,0.44652875199737335,33836000000
-5.698825989493554,-0.014594769060315897,0.45027797402371295,33841000000
-4.558580449019595,-0.041500895691738864,0.45235466988950357,33848000000
-6.481038994788318,-0.024389025391685054,0.45620248393813034,33853000000
-4.566441308855009,-0.03011180833381119,0.45752735605185685,33858000000
-7.581739287092502,-0.07001491525358586,0.45961687714661126,33863000000
-5.376848595454557,-0.024454822075417416,0.46273453966807726,33868000000
-6.093934638135866,-0.03585241134574571,0.4652706847606139,33873000000
-5.649751359647465,-0.040120330687994636,0.4671511451552342,33878000000
-4.570665381980039,-0.026126705578016836,0.46877545700641593,33883000000
-7.450329777872554,-0.05614870805913226,0.47181551114894943,33888000000
-5.699513118388605,-0.07725991707673549,0.4738203189672779,33893000000
-5.2227902693033945,-0.04964327420741011,0.4763031542327386,33898000000
-4.568932119586454,-0.0404312451601998,0.4781879601736706,33903000000
-7.634516193796685,-0.059787437969933015,0.4800015982674548,33908000000
-5.302445322787368,-0.05716300841786477,0.485527482067846,33918000000
-5.722799053351241,-0.07768621671771621,0.4876614985539791,33923000000
-7.288962903880054,-0.08360476214762443,0.49029798696072874,33928000000
-4.585324979787163,-0.04427276126396642,0.49215918963284583,33933000000
-6.460143872571367,-0.05265417335095112,0.494584732901272,33938000000
-4.609383857029946,-0.07594158325705887,0.49638334626683944,33943000000
-7.290924198900723,-0.07706474136873227,0.49908976413481604,33948000000
-4.619892580339944,-0.07481209159424854,0.5011986094274999,33953000000
-5.478812028941306,-0.05559879631044128,0.5037817056288835,33958000000
-7.274840838823414,-0.08412514165045198,0.5065846837576105,33963000000
-4.945514549294432,-0.01275254254809298,0.5068947748122316,33968000000
-5.206389847417854,-0.05965018876649769,0.5098883167560766,33973000000
-5.502109003377058,-0.04077637414865312,0.513074516328983,33978000000
-5.8150961120120455,-0.06809828094467278,0.5146264513398694,33983000000
-7.22108719247952,-0.10265846031686217,0.5176393279767041,33988000000
-5.554542894054716,-0.05227885578275318,0.5202169743021962,33993000000
-4.6489475270638145,-0.03971462899696793,0.5220664717950086,33998000000
-5.801356867567157,-0.07450297331949217,0.5239879290708881,34003000000
-6.428438596231242,-0.08352920777278604,0.5244575373883266,34008000000
-5.786997315883729,-0.03567984689122362,0.5287208102137541,34013000000
-5.649887151921791,-0.019316120751688086,0.5315307911359887,34018000000
-7.205313382849423,-0.04459266072667281,0.5344443395381676,34023000000
-5.792132611821777,-0.012732432063145685,0.5367165160537837,34028000000
-4.668805763720565,-0.012428084740579727,0.5381473697473431,34033000000
-5.8360827561999455,-0.04006171240252343,0.5396804410122971,34038000000
-5.68201422460302,-0.04614276575166051,0.5425374138403531,34043000000
-5.986399733394161,-0.022583777998515957,0.5457855417317365,34048000000
-7.769051960503065,-0.03509787047436781,0.5472183550409238,34053000000
-5.7234338771910185,-0.017947168809658173,0.5505111973592408,34058000000
-4.66800394217059,0.008439299793218249,0.5523699023894092,34063000000
-7.129439265508686,0.002662837844153497,0.5548516705977566,34068000000
-5.735798684790393,0.015855703239256114,0.5578008510363078,34073000000
-5.855324827240553,0.009790753494668177,0.5602093122898665,34078000000
-18.75842555626379,1.5545098383547453,0.5528450164061456,34083000000
-7.634443979295277,-1.2095519330891462,0.5489778881542735,34088000000
-5.864734596912868,0.025843200425660275,0.5472016757184911,34093000000
-5.857093538826903,0.005166328805918913,0.5450093675771591,34098000000
-5.880257405040286,-0.0010860153230088758,0.5425195922069306,34103000000
-5.875973313127062,0.03126723290196723,0.5405320235376069,34108000000
-5.858105768975117,-0.0014101358500285127,0.5383996215077276,34113000000
-5.846183540370528,0.04278489664321106,0.5359563570710613,34118000000
-5.877985373657462,0.05727110898189938,0.5338257005056869,34123000000
-5.913912198313993,0.024931799308962797,0.5314923106014265,34128000000
-5.876125828094517,0.04804344961389927,0.5288933229074141,34133000000
-5.890368254268285,0.06475282989715114,0.5269279242391507,34138000000
-5.88211682062143,0.03836681414415428,0.5249902902323982,34143000000
-5.897703541532617,0.02305889229606382,0.5219202241762003,34148000000
-5.876883304956499,0.0781173281596523,0.5200114078175823,34153000000
-5.885651663254122,0.07939649043336004,0.5174319552315565,34158000000
-5.906815341522659,0.04405249617774081,0.5152219772097104,34163000000
-5.883003916349845,0.06159886994120197,0.5124803236623019,34168000000
-5.9322295834588585,0.02790184424273777,0.5102042341491028,34173000000
-5.933304191084472,0.07734676289628334,0.5087309575742051,34178000000
-5.9203789064250225,0.09186461052710533,0.5061123118757928,34183000000
-5.908710619394443,0.05855481100791656,0.5035907433225031,34188000000
-5.918346283566976,0.10223692869504492,0.5014648558727663,34193000000
-5.92368972874726,0.09019706225140595,0.49930686678480773,34198000000
-5.902538303355587,0.08592773551508213,0.49684646035205865,34203000000
-5.926159607976488,0.07677476184724591,0.49496770280049524,34208000000
-5.920360713185425,0.10295791860999916,0.49269672631163086,34213000000
-5.913436951323629,0.07711239452194134,0.49011700134441366,34218000000
-5.893563819223868,0.08436056613494802,0.4868492684320528,34224000000
-5.894273916735901,0.06559238586731424,0.48562765040243155,34229000000
-5.953315450088346,0.07336371322466724,0.482467148279596,34234000000
-5.933324730160518,0.10315385244970401,0.4810273478716288,34239000000
-5.908200267846201,0.09605175012301462,0.4788522821570359,34244000000
-5.914951237038073,0.09280658494145189,0.4767050657959911,34249000000
-5.970945059994855,0.07087811030163833,0.47444045436711824,34254000000
-5.92268358718857,0.0919495959469435,0.47238895190941593,34259000000
-5.9141993203273575,0.062035843294562736,0.46980204220144295,34264000000
-5.921548283405162,0.08009283368934897,0.4680807311752745,34269000000
-5.9762719806396625,0.06477479544211635,0.46632015467490184,34274000000
-5.926585179034463,0.0580275291105312,0.4625980709397387,34279000000
-5.926521614788678,0.038385653490478594,0.46065483484877706,34284000000
-5.940262683752952,0.0625225623405009,0.4584518521942354,34289000000
-5.934332201503073,0.09287030048732241,0.45696210768147194,34294000000
-5.9331394951830445,0.08426411951007814,0.45396634749782705,34299000000
-5.954125161629238,0.0930187525236217,0.45184183520101967,34304000000
-5.912717711621541,0.06596838377572048,0.44935382977528965,34309000000
-5.963354346699429,0.07702153171841515,0.44773569348142245,34314000000
-5.954849120909473,0.03807400222169256,0.4448158714488545,34319000000
-5.973416932188659,0.0345682761221683,0.44248736597141725,34324000000
-5.949463337440047,0.06023013846905599,0.44077527274346234,34329000000
-5.932445438761435,0.022456456420625943,0.4380355152187816,34334000000
-5.961758641395921,0.01875955340051574,0.4357696679350621,34339000000
-5.944666510798536,0.040166261540555075,0.4333073602763732,34344000000
-5.957367809010323,0.06031525209775228,0.43119740928442035,34349000000
-5.942760035947629,0.0465183207850402,0.42846344184381563,34355000000
-5.9387659212029575,0.009521673315748184,0.4254832789241728,34361000000
-5.96322659249873,0.005265628326076743,0.4235867182752438,34366000000
-5.920139012801531,0.022998379045453397,0.4209196799341687,34371000000
-5.9721395291387065,-0.019128144977790383,0.4187657633309989,34376000000
-5.964689927098281,-0.007109010976319488,0.4172313166322793,34381000000
-5.94413290572969,0.008239214922296973,0.41459616658371234,34386000000
-5.962948657836428,-0.012445461123434826,0.41216348089365695,34391000000
0.13304505832976982,-2.1351940750833416,0.4100094541372004,34396000000
-1.755878150564802,2.1226482893964196,0.4112291093122803,34401000000
-3.6211062909699345,0.018634075858452507,0.41211858595726675,34406000000
-7.139305470754063,-0.037274877399761805,0.4156764571848644,34411000000
-7.119063890454346,-0.0003223126152352117,0.4183141294469299,34416000000
-4.789509672664775,0.006013938043923497,0.4201769206960283,34421000000
-5.957021250585137,-0.021713519818800507,0.4230709595306411,34426000000
-5.957889742687093,-0.010538400524352565,0.42542576431905604,34431000000
-5.960822128409539,-0.0164943186268859,0.4278628041207623,34436000000
-5.950198288226649,-0.02012676079961982,0.42915827131320244,34441000000
-5.949600273015734,-0.0322648968526409,0.4322505186650057,34446000000
-5.955631230618268,-0.034511172476850274,0.43497439567606205,34451000000
-5.965575842226709,-0.07894542049135525,0.4371744244344764,34456000000
-5.903701033542297,-0.041923188733149416,0.4394974239829438,34461000000
-5.947651660405571,-0.03698778518345996,0.4421887727703889,34466000000
-5.935722906728759,-0.03034853112823928,0.44473634144127394,34471000000
-5.953034158272745,-0.07246652755485303,0.4469638434943579,34476000000
-5.959135947646644,-0.0543767956761268,0.448828484219812,34481000000
-5.941551719769573,-0.08655239759737372,0.4522442369341835,34486000000
-5.938076024227444,-0.0980173087534664,0.454029296541433,34491000000
-5.968218944035243,-0.06063086715995255,0.456315972885811,34496000000
-5.976225175996232,-0.06210986562886587,0.4586740359371602,34501000000
-5.907082338653702,-0.10103515896860113,0.46094143899199874,34506000000
-5.944376503580718,-0.038743379101792284,0.4636626464718773,34511000000
-5.923341189940534,-0.0685002647180288,0.46616770530009916,34516000000
-5.896369260983398,-0.06522965671441902,0.4686538816164167,34521000000
-5.9154292143412,-0.058978293623213884,0.4702819026438196,34526000000
-5.936939259447834,-0.10207741864383575,0.4726638161265034,34531000000
-5.940449817853448,-0.04623308615492233,0.475558448354006,34536000000
-5.9358568998548815,-0.05943670148131214,0.478225971945267,34541000000
-5.929340790131852,-0.08732383892013253,0.4803980213281016,34547000000
-5.936047245038726,-0.06681098868080691,0.48273056094294503,34552000000
-5.888748850622923,-0.08184915684386693,0.4849136036229611,34557000000
-5.921935657602307,-0.060780854479609896,0.4877430482191702,34562000000
-5.932922801515977,-0.04091574402775714,0.4900573275148435,34568000000
-5.9480050760510785,-0.06480861790142368,0.4925193120275511,34573000000
-5.909350115383603,-0.03933194268144857,0.4952308531982139,34578000000
-5.91876567139248,-0.08496439319142379,0.4975174610507184,34583000000
-5.934892297098144,-0.06103923730762887,0.4996212247660377,34588000000
-5.9329446306536235,-0.06481667938902336,0.502915819789717,34593000000
-5.93069187345757,-0.03338281502318745,0.5048577235967587,34598000000
-5.910341717367157,-0.06930705735198432,0.5076071092595564,34604000000
-5.90590796156718,-0.025376972174869217,0.5096393897804877,34609000000
-5.911215668209893,-0.027187905858419723,0.5121707793367077,34614000000
-5.924081856503625,-0.03005287259227703,0.5143403569440298,34619000000
-5.917173282605752,-0.040855746849172155,0.5172907624472606,34624000000
-5.890979031112733,-0.0595818800787281,0.519988863322628,34629000000
-5.847148820038881,-0.03375617879962545,0.5227349865374171,34635000000
-5.925613507079886,-0.03060607591273453,0.5246056066084047,34640000000
-5.88521783215722,-0.0037909667885607755,0.5269573538918346,34645000000
-5.87259101945817,-0.010319348782098465,0.5303631246172651,34651000000
-5.915897390262531,-0.04070526908042742,0.5324108327077711,34656000000
-5.911701445458137,-0.017645164422360807,0.5345611658922345,34661000000
-5.887745423087796,-0.021683553037825563,0.5368098696742323,34666000000
-5.876012740943479,-0.012297550011824438,0.5399135298992327,34671000000
-5.865351619474807,-0.011597165100333309,0.5419318844351158,34676000000
-5.884289465719236,-0.008142255140536415,0.544223196009086,34681000000
-5.875624761118219,0.012087873540590552,0.5463172012436621,34686000000
-20.721376836338735,0.35515183764330543,0.5383379655269089,34691000000
-6.222139341538462,-0.2128229515805244,0.5357090874079932,34696000000
-5.955209540462054,0.010571205478785635,0.5333729531117389,34701000000
-4.687153143552712,-0.005416609897910632,0.5318556544476257,34706000000
-8.022747627892763,0.01687869438098076,0.528444072282664,34711000000
-4.697175943397863,-0.024990225834360752,0.5266527033969656,34716000000
-6.1128837954236,0.017885423279850897,0.5241840729319873,34721000000
-6.586644999164985,0.030138317518622063,0.5208858189428073,34726000000
-5.848766439904187,0.010864060921865405,0.5192559182102914,34731000000
-4.650290287926643,0.01862880617257407,0.517276077305744,34736000000
-6.267230431803529,0.024051585845327572,0.5151894722338315,34741000000
-4.675333438085227,0.043074667462231854,0.5134846039010035,34746000000
-7.70161603326318,0.056608414094730906,0.5106630038400434,34751000000
-4.673788192642913,0.04227219334159008,0.5085611713023594,34756000000
-6.348252441636501,0.025468703004432595,0.5063805362901449,34761000000
-6.335501898959199,0.03681264990400586,0.5034735017875833,34766000000
-5.818991394752113,0.05008406176682612,0.5016230842190257,34771000000
-4.653343725313034,0.07389639133636978,0.49980198270097087,34776000000
-6.425482110963035,0.04686056538324587,0.4977031363293853,34781000000
-6.2598745715062885,0.06609722991076317,0.4947657687688347,34786000000
-5.808387581370002,0.058607302615085774,0.4925239926375458,34791000000
-4.678356833047629,0.023079713955670045,0.4912362365486314,34796000000
-6.611687150826606,0.04166606942906591,0.4875575744350324,34802000000
-5.793959273976875,0.06235426002188476,0.48607095638502457,34807000000
-4.744146390099573,0.04849530205963689,0.4852795930736125,34813000000
-6.02137211372414,0.049697265428193166,0.4805019395746114,34818000000
-5.790691407776229,0.059114326879427456,0.47897236724468456,34823000000
-5.79220114426764,0.051090039386038746,0.4770649556027452,34828000000
-5.44950298654942,0.002425501472735417,0.47469606919093044,34833000000
-5.753823497510694,0.05452195712266778,0.47284085847133167,34838000000
-5.185799042237499,0.0341196964794172,0.47017720247499295,34843000000
-5.7759258307684584,0.055965970627190186,0.46821963765852875,34848000000
-6.603155852503459,0.04535159744028931,0.465469720503154,34853000000
-4.6152152887780415,0.0460146895444388,0.4637370415468068,34858000000
-6.5638086624020415,0.06259800516700545,0.46029905372664104,34864000000
-5.743288045740059,0.05568506294399047,0.4585204369367046,34869000000
-4.619425223958699,0.03585575465932865,0.45658623017761146,34874000000
-7.151794173955473,0.05953861109470299,0.45382869422965416,34879000000
-5.5252287086830085,0.03924161743487807,0.45155878346192685,34884000000
-5.762575427328079,0.05743684413651799,0.44968598361673834,34889000000
-5.069091189699665,0.03376384612457505,0.4464032436567422,34896000000
-5.553439373888306,0.026164998934790545,0.4441110009428486,34901000000
-5.706985991079496,0.03389288678604451,0.4422503405363864,34906000000
-7.08738293449351,0.07169257904671283,0.4394779058022757,34911000000
-4.564870243953889,-0.0013871308924624619,0.4386118200849807,34916000000
-5.580208310480141,0.045075765109853755,0.435581526798315,34921000000
-7.6152441641088435,0.026167423789082697,0.43323882408681674,34926000000
-5.722945206862897,-0.0071669035277806235,0.43199824694337136,34931000000
-5.713101273747237,-0.0030330498063399474,0.4287626448443765,34936000000
-4.557850854295336,0.010540602400631397,0.4267552046694967,34941000000
-6.944238051991342,-0.012606459032899265,0.42363866412044493,34946000000
-5.6938158652245505,-0.011587841583599271,0.42229581375643893,34951000000
-4.542677280845598,-0.051731152045200735,0.4204741701712771,34956000000
-2.9936172962419616,0.3012400258618668,0.4186594217516438,34961000000
2.0879763243113354,-0.34577669227276453,0.4176278301285666,34966000000
-4.918758705836102,-0.02607335944928093,0.41978295638581364,34971000000
-5.680958125211385,0.027985561442342124,0.4220025328362675,34976000000
-5.653515585983369,-0.002962333144713296,0.4246388377158509,34981000000
-5.644735865356843,0.01762178890929751,0.42691283576654293,34986000000
-5.63429374102049,-0.00708769510814726,0.4289376765785443,34991000000
-5.655265578788343,-0.004579422876724876,0.4313585518846333,34996000000
-5.630164531275262,-0.007865364782049852,0.4338757311045242,35001000000
-5.630355471948942,-0.05225683307512305,0.4359541835065143,35006000000
-5.625171701679014,-0.042639340313877394,0.4369259716187958,35011000000
-5.599516081068333,-0.04210942923755707,0.44043501873350765,35016000000
-5.619108264678642,-0.06996094351367173,0.4428775338229816,35021000000
-5.603493209904496,-0.0567961337558828,0.445760624279431,35026000000
-5.583386159438823,-0.060767927886837415,0.44741174151532176,35031000000
-5.594522491526885,-0.04894344244790041,0.44960189724451105,35036000000
-5.574134105435281,-0.061169490540623726,0.45161645046315135,35041000000
-5.60095558072088,-0.08395966844472608,0.4540441006358789,35046000000
-5.58638450274496,-0.04834706364796141,0.4562106175457533,35051000000
-5.575438529410656,-0.08585957558663067,0.45841718148749966,35056000000
-5.563664992043178,-0.051653291216394163,0.46016618775996015,35061000000
-5.555481858873513,-0.06065182110606276,0.46334779795250847,35066000000
-5.55928792505904,-0.0742271428532482,0.4641987702828208,35071000000
-5.551999208273991,-0.08929382410634919,0.46733586898080864,35076000000
-5.523809227094454,-0.08197276458388983,0.46923005090270675,35081000000
-5.502617398514251,-0.08194426704880002,0.47139569979415735,35086000000
-5.542288561661035,-0.0645408087538399,0.4737108883750465,35091000000
-5.493571008299601,-0.07633659103270327,0.4760458634494465,35096000000
-5.497874078758197,-0.09237930801407955,0.478012794108436,35101000000
-5.512730549672307,-0.08093906742782774,0.48002527327087113,35106000000
-5.489085184351478,-0.06799850727677857,0.482598953277168,35111000000
-5.4834885309928145,-0.11853622226607113,0.4844966015364533,35116000000
-5.487474833925955,-0.09485980903871087,0.48707611145646285,35121000000
-5.494564958660235,-0.10121676043589636,0.4892556538536848,35126000000
-5.4652663295897606,-0.09664084479186515,0.49152724503534595,35131000000
-5.487321255854495,-0.08004215467417378,0.4934193433673009,35136000000
-5.444883935550102,-0.06990440433031535,0.495209995620503,35142000000
-5.44314122101072,-0.0932552908781452,0.4983922362960673,35147000000
-5.4371952400358,-0.07245068096550146,0.5000715236318694,35152000000
-5.387591568115837,-0.07514786244108584,0.5029998822289169,35158000000
-5.40711187075057,-0.07632247529829062,0.5052904923166606,35163000000
-5.428380437185452,-0.08865929202944364,0.5074517656960843,35168000000
-5.382661893764371,-0.09156756982991358,0.5096140204828027,35173000000
-5.4120285552695595,-0.05700497222670531,0.5115791918329431,35178000000
-5.4138240515165075,-0.07276853307060219,0.5138420152923332,35183000000
-5.4037462536567,-0.0809825469397154,0.5166667831169649,35188000000
-5.375002631555426,-0.04456105048437662,0.5182077399127791,35193000000
-5.332025301976313,-0.07173248874476866,0.5202595269122333,35198000000
-5.366164445277878,-0.05967335638414097,0.522490584096124,35203000000
-5.357021381365199,-0.05907861472440125,0.5248786366672384,35208000000
-5.321154202802685,-0.03539892953672457,0.5266024799126436,35213000000
-5.31890339590326,-0.03326687307265622,0.5285871580558876,35218000000
-5.3312446834658,-0.023402951424165555,0.5314448636837303,35223000000
-5.3183294520279185,-0.0030340602026630303,0.5334208194211727,35228000000
-5.288886700550166,-0.057452423841608535,0.5357949059708187,35233000000
-5.312582728720062,-0.03754806544926704,0.537362705228236,35238000000
-5.306610385932091,-0.0346331192514275,0.539861573083623,35243000000
-5.30223284053272,-0.019542415989348427,0.5418785499482808,35248000000
-5.291129480384004,-0.02181882637607166,0.543969117291561,35253000000
-5.289479621148899,-0.02595705254812843,0.5450569791945787,35258000000
-5.250120457796023,-0.018163656739476654,0.5482613719297434,35263000000
-5.259509155603725,0.0005311074609205559,0.55066896534202,35268000000
-5.217745162049325,-0.011961437490216841,0.5526025517879495,35273000000
-5.229714835395207,-0.0010102455704686791,0.5546221122770191,35278000000
-13.665832256349177,-1.5412472109222513,0.5493211020482615,35283000000
-13.214021611430017,1.6508716680869364,0.5449666292504837,35288000000
-4.123232850501682,-0.013257834141294058,0.543171937168703,35293000000
-5.281806631237311,0.016842664373992816,0.5407801488193241,35298000000
-4.167279897596076,0.02047027592754378,0.5393662869512889,35303000000
-7.041637354146346,0.009526277813767295,0.5366495088709692,35308000000
-4.116811761279295,0.013279989157996188,0.5350476677969715,35313000000
-5.40878558624452,0.021560038061535645,0.5331155419241911,35318000000
-4.138773074648912,0.04262751691591184,0.5310044739277481,35323000000
-6.890125271103962,0.014220065903649982,0.528348946309594,35328000000
-4.094214057067326,0.006843940330658875,0.5271409533157524,35333000000
-4.543470412048631,0.019513269258516406,0.5255059550034922,35338000000
-5.120763360379883,0.03824288988667065,0.5230679879952415,35343000000
-6.656286291151846,0.04611384793789233,0.5209180074043871,35348000000
-4.042692341416317,0.03598364418779569,0.5196161572750909,35353000000
-5.517416111655384,0.046770626693192235,0.5170699571010585,35358000000
-4.039151390350699,0.04941279399299111,0.5156023889868094,35363000000
-6.5705708035413,0.06213522706555984,0.5130179657925067,35368000000
-4.616264338783132,0.07276647288855284,0.5110991419638561,35373000000
-5.05878957314618,0.06152263743448059,0.5092328405324065,35378000000
-5.44168578250325,0.05902294203857956,0.5073166650550033,35383000000
-5.0110411713274035,0.019106985630073934,0.5053440074900833,35388000000
-4.016971357490688,0.06381099625467025,0.503907537722058,35394000000
-4.655028533352533,0.017545986444894867,0.5017927832306537,35399000000
-6.347641750836088,0.07034002194165317,0.4993034837252702,35404000000
-3.9968505851768326,0.04033575157625825,0.4981453682062386,35409000000
-5.607240660269561,0.03353002172833944,0.4954537624917828,35414000000
-3.984732608948071,0.04603793896180977,0.4944655439840669,35419000000
-6.219140131670009,0.05582837279200934,0.4917935813269677,35424000000
-3.961424173215729,0.05163681136465344,0.49002660594461234,35429000000
-4.677977032816398,0.040244099530919134,0.48818074997664723,35434000000
-6.165000504323703,0.07601167768859635,0.48569671192015496,35439000000
-4.888926269221382,0.045766755915604626,0.4841588089037812,35444000000
-3.876436474225801,0.019112679237408295,0.48242017304104545,35449000000
-5.605470828524222,0.05157421392764627,0.4804622867765782,35454000000
-3.9103118624573594,0.020204423816055948,0.478906988781866,35459000000
-6.006564105535687,0.042244629748811165,0.47699449919185744,35464000000
-3.8887651155108105,0.008621933602673774,0.47532885440604017,35469000000
-5.574343792302013,0.028506147648941795,0.4736943285973489,35474000000
-3.8811134321547693,0.04831665959850223,0.47166736849962465,35479000000
-5.927163816188185,0.0266218976855783,0.46976183801614163,35484000000
-4.665115628423402,0.006563268815550901,0.4676218863173852,35489000000
-4.772134518605278,0.03539097588775757,0.46585709692088256,35494000000
-3.7867098831173793,0.026014685243195366,0.46421428032705014,35499000000
-4.7670285578684535,-0.03301879241650547,0.463411945941171,35504000000
-4.909055059635747,0.002055021641718593,0.4608386534785232,35509000000
-5.534297430486359,0.012060319234494542,0.45854213059774085,35514000000
2.447816050581213,1.634966865702752,0.4563030399849994,35519000000
0.9589836752523583,-2.483088828006325,0.4559913900050607,35524000000
-4.71909809594689,0.02198145758756001,0.4574765552560907,35529000000
-4.684324741737784,0.02209608197829291,0.4597181175249044,35534000000
-4.693861632993269,-0.009318737759882515,0.4615153077708621,35539000000
-4.641432474078194,-0.0019450552487105394,0.4634973880796266,35544000000
-4.653634724725184,-0.03389281587679487,0.46528351109288735,35549000000
-4.6475655042683925,-0.03837183453484323,0.4674383673937432,35554000000
-4.626427365692296,-0.02093132591683579,0.4690419341255697,35559000000
-4.638526048294666,-0.024928773142930537,0.47105637624453567,35564000000
-4.596633605520721,-0.04031407801845707,0.47299674670332215,35569000000
-4.585556020510246,-0.06331768974397675,0.47454610635566813,35574000000
-4.585929431512171,-0.05586456053980525,0.47639749160195405,35579000000
-4.56711567296192,-0.0593113640448023,0.47923476300331475,35585000000
-4.581244022583325,-0.05531584442711572,0.4807029739061413,35590000000
-4.554314327517775,-0.051642523485983916,0.48258124657297985,35596000000
-4.537191846278506,-0.04670197592385304,0.48394788181430853,35601000000
-4.511865609700233,-0.05540006230229913,0.4860644316148439,35606000000
-4.505720654034845,-0.034505549505779276,0.48777748311920194,35611000000
-4.483604688903557,-0.06094887682993249,0.4897112686950767,35616000000
-4.465271553438004,-0.07981254424637012,0.49213668894083207,35621000000
-4.429265853443004,-0.07566194696051752,0.4923515072696536,35626000000
-4.420368923226319,-0.05533786014112735,0.49545803386789755,35633000000
-4.439888586028108,-0.06886117509165703,0.4973325475047758,35638000000
-4.429954897175417,-0.09126657829124597,0.5001565976550413,35644000000
-4.3754562617092985,-0.052956604806986,0.5015340766903963,35649000000
-4.405046677670608,-0.08923658331952752,0.5031183885516917,35654000000
-4.356983944548534,-0.06117398123388025,0.5049402324463362,35659000000
-4.334673748091772,-0.07089814825984582,0.5069432842191979,35664000000
-4.325463615906273,-0.06078877413271844,0.5081354568731038,35669000000
-4.310785962721043,-0.10127006343059443,0.5098381339220014,35674000000
-4.288843383990988,-0.07192287123049035,0.5114007943032531,35679000000
-4.26275961216263,-0.0893501002845037,0.5138447316203797,35684000000
-4.25214103798414,-0.08220026324403412,0.5153727298296465,35689000000
-4.284302569523502,-0.0850842258329294,0.5170148751818552,35694000000
-4.271664323521637,-0.07735217637238206,0.5187315553359508,35699000000
-4.211728157325877,-0.08705728261419313,0.5202687768844595,35704000000
-4.238291743474275,-0.08168628670682235,0.5221034358821609,35709000000
-4.19270147419957,-0.07658933904115627,0.5239760425496723,35714000000
-4.1438705823742055,-0.09878881728718772,0.5257863518246871,35719000000
-4.15706055839791,-0.0976371834026708,0.5270920499010585,35724000000
-4.12252879592017,-0.04582147238877138,0.5292852887324124,35729000000
-4.122961671940781,-0.0623873803729605,0.5304037113399513,35734000000
-4.082472368011765,-0.05823529911784461,0.5325297691211167,35739000000
-4.083977554852506,-0.10171248211164663,0.5337045101789074,35744000000
-4.071823047087638,-0.05620592571866921,0.5354322327150193,35749000000
-4.138424555244081,-0.0742186729666453,0.5368604696605365,35754000000
-4.082303628343419,-0.07665744142385669,0.538429219424613,35759000000
-4.028280270703005,-0.06424010132598917,0.5406226889609046,35764000000
-4.003675330947231,-0.055894142826093944,0.5420897052929755,35769000000
-4.0141685354019225,-0.0652197757351546,0.5442103730892343,35774000000
-4.001910897866897,-0.059195108071822995,0.5451501461262445,35779000000
-3.9902080610329356,-0.05349755829820798,0.5466700226502393,35784000000
-3.97435296028007,-0.06396672568596379,0.5485959318411295,35789000000
-3.938759620262973,-0.06115907240437765,0.5499466418830438,35794000000
-3.9323980589235075,-0.05870150834094473,0.5520279461056128,35799000000
-3.915469742910432,-0.03738931405813434,0.5529790465666613,35804000000
-3.850554571792802,-0.06322589283582201,0.5547182940905294,35809000000
-3.8715799418896664,-0.024477161972349632,0.5558222405408022,35814000000
-3.8350087511858186,-0.05141103802098324,0.5574496833832214,35819000000
-3.1010403810756704,-0.030954595799967267,0.5583180313802366,35824000000
-4.584969628812166,-0.0389924246729252,0.5603791315157908,35829000000
-3.077215842682753,-0.026547848000148394,0.5617494684357843,35834000000
-5.228720478875536,-0.048964301640723254,0.5636875342486898,35839000000
-3.0117070303527833,-0.017476899786465293,0.56474509179153,35844000000
-3.849268406503691,0.009101167607370427,0.5661389169260985,35849000000
-3.0097693934912244,0.013344545452014892,0.5670636200057327,35854000000
-5.030427334873842,-0.02300160602398803,0.569517694848963,35859000000
-2.9614015767483783,0.0005584731970057347,0.5705642840191266,35864000000
-3.2160114632349903,0.002490184156305896,0.5724572085072539,35870000000
-4.89482882192925,0.0370441142455467,0.5738232109716941,35875000000
-14.669062607156452,-2.4921910617595566,0.5683419502745246,35880000000
-6.627565034427213,2.1325644006157685,0.5661606856524529,35885000000
-3.5738589554838627,0.008487236734258587,0.5648128683685403,35890000000
-4.114866124863766,-0.01387525476072482,0.5628215496667134,35896000000
-3.634024956053523,0.01178802766861911,0.561489889725988,35901000000
-2.843752839631341,0.016833777917778486,0.5608659669943827,35906000000
-4.787439178888707,0.051600387094958323,0.5585130238540157,35911000000
-1.4444698181139526,-0.032357989896502376,0.5585123289079993,35916000000
-4.0142094876976815,0.021176329015589457,0.5562279313866922,35921000000
-3.8251046221688427,-0.014230719497193955,0.5543919080010415,35926000000
-3.423360293477347,0.03570514188362396,0.553780882591258,35931000000
-2.712050868641652,-4.650912512361299e-05,0.5527856286665099,35936000000
-3.043515113460776,0.014800137100269388,0.5515251991300216,35941000000
-3.3913507319748923,0.03670512883832075,0.5503342001491466,35946000000
-4.416479620190898,0.037148738070429385,0.5489065481782615,35951000000
-2.6499484465419125,-0.0057319230706924795,0.5474498728750598,35956000000
-3.645563927746604,0.0267079754410948,0.5459555145629539,35961000000
-2.642349830602651,0.013090320237439505,0.5450365867053923,35966000000
-4.225832072430826,0.03530576042389721,0.5432834614345087,35971000000
-2.629335333077047,0.02908744768339911,0.5422564023269719,35976000000
-3.575687389016853,-0.00970713441594398,0.541233026887249,35981000000
-2.5746437362680434,0.01972573310364782,0.5401683690578133,35986000000
-4.06956638595938,0.022655951004956706,0.5386706666880989,35991000000
-2.520280809282283,0.02012228951711966,0.5374157302664402,35996000000
-3.5249050197735374,0.05327312494994718,0.5361284311896727,36001000000
-2.5054536416756052,-0.003702906934032,0.5350498515668289,36006000000
-3.1183756088398327,0.026758403482053557,0.5334658202508443,36013000000
-3.1069697120784046,0.021156123841873768,0.5323652798055655,36018000000
-3.8794405068226534,0.015210090735432818,0.5307802095928972,36023000000
-3.0528251573779612,0.02614192417199998,0.5298052218583841,36028000000
-2.886963957878254,-0.004246322360385853,0.5285113811452758,36033000000
-2.3955171928656656,-0.03381376949089547,0.5273295735410172,36038000000
-3.9518755038833335,0.022211217150566162,0.526562620232215,36043000000
-2.6268573538710975,-0.014181325044525489,0.5248724176047601,36048000000
-3.342855183509079,0.007389050844591707,0.5241326342544101,36053000000
-2.314434926748078,0.012205029767456554,0.5226257784446533,36058000000
-3.5896023867712556,-0.032724001308319095,0.5216673157136785,36063000000
0.5796789911875626,15.88201138567427,0.5133180552468187,36068000000
-0.0075464268967668,0.058592167588125646,0.5134746511475532,36073000000
-0.01922553102068395,0.016309391063483468,0.5132855511407761,36078000000
2.7061758431639378,-15.895772521628768,0.5079810832928945,36083000000
54.95615257198474,14.218447144858374,0.47912699082875515,36088000000
13.213090014581836,-12.493229025320655,0.4700079843499628,36093000000
-1.2812122822267904,-0.672451758490916,0.4699908334202607,36099000000
-3.4142214086179687,0.15028121176188045,0.46982118076866447,36105000000
-3.9078527487807966,0.10123936747110081,0.4704942335178634,36110000000
-1.1343327666695273,0.3201941200657072,0.4691958472843871,36115000000
-4.093616953547956,0.1384781853334022,0.4729198067628842,36120000000
0.25241291977601005,0.2109067102453889,0.48204217985664605,36125000000
-5.023683160140561,0.7014043172612603,0.4951010936177062,36130000000
0.23039381688695237,-0.23736517935001095,0.5117503558480762,36135000000
-5.619736201863232,0.5053106150792851,0.530661887339149,36140000000
0.20502619972728917,-0.22118086836434972,0.5494226353331169,36145000000
-2.54387025449501,0.36866530352462756,0.5714581745175071,36150000000
-2.471106702902722,0.21573588493701779,0.5970007183062358,36155000000
-2.0996607807163175,0.05135914819762431,0.6220696930919671,36160000000
-2.3690745990770883,0.26182944065558605,0.6492661379719928,36165000000
-1.0502204572913623,0.28981898061534794,0.6597601964011678,36170000000
-4.434307295811826,0.33990773834292487,0.6756887534376202,36175000000
-0.2610144358791433,0.19159542612647992,0.6808927843064195,36180000000
-1.6982926437262233,0.35387240385270063,0.6838510899549081,36185000000
-1.9795120958775139,0.31224903105305235,0.6855808105774374,36190000000
-2.1377445500417736,0.30480477028553254,0.6854752963200467,36195000000
-2.1820061165830555,0.29067265169209583,0.6846757547227631,36200000000
-2.1823448887165915,0.28029180652157604,0.6827720544742892,36205000000
-2.1586114770378857,0.2301481881124781,0.6803539384178641,36210000000
-2.070265310427676,0.29198940048463035,0.6786276924029581,36215000000
-2.2601940546695234,0.2785418621056769,0.6769462064023171,36220000000
-2.1414937160602197,0.275001191105315,0.675677418351883,36225000000
-2.1107377252735775,0.2451108668366387,0.6748309205291881,36230000000
-2.1126590569938553,0.24581983511926456,0.6735110092433757,36235000000
-2.0721990052347703,0.26239202094855635,0.6729579608152353,36240000000
-2.0252166853836897,0.23923938402906275,0.6722172616298615,36245000000
-2.021659600895272,0.2379664266438281,0.671703680327037,36250000000
-1.9737851583707433,0.2458861552804683,0.6706686319081079,36255000000
-1.9625114782045296,0.242757221334064,0.670053767511849,36260000000
-1.922572827611064,0.2332500407694014,0.6698062982427762,36265000000
-1.9103759880930349,0.22965149099181614,0.669560688407628,36270000000
-1.8791010020738619,0.23905059616658925,0.6690612214773438,36275000000
-1.8801080999947417,0.20952177322988552,0.6691231207182249,36280000000
-1.253211629774247,0.25806625142628636,0.6696418154588019,36285000000
-1.637194510131194,0.24507455082449695,0.6723024420496491,36290000000
-1.7061786384784146,0.2438787481460677,0.6750332100856424,36295000000
-1.6936928631342427,0.23402888789980114,0.6773799584596705,36300000000
-1.6550753617617544,0.21158408685994406,0.6800616732770718,36305000000
-1.668525029718823,0.2039521531055991,0.6827209658007309,36311000000
-1.6727040174416374,0.21304877972566819,0.6846678412781045,36316000000
-1.6418701747754478,0.1950454676351216,0.6867872796665637,36321000000
-1.6048237119883837,0.21671785950152156,0.6888363929299621,36326000000
-1.5824689471552569,0.17443170707512995,0.6908994258951786,36331000000
-1.6057874780731982,0.2508340128392472,0.6919190182986773,36336000000
-1.2015366470804316,0.19240536156571705,0.691472528003181,36341000000
-1.07578338855015,0.18096175486518923,0.6928144771824193,36346000000
-1.9500572883130047,0.1454184870293989,0.6954280640610929,36351000000
-1.4276723326838623,0.20697056138372225,0.6955773581180242,36356000000
-1.1868181459859508,0.17825825266134065,0.695796391308411,36361000000
-1.302359951465827,0.1848752289349515,0.6960091673820931,36366000000
-1.2990861058296546,0.15353890870299325,0.6962583952473559,36371000000
-1.5698165359403307,0.17283767242959946,0.6978083200576282,36376000000
-1.2520825831575262,0.20241201585529336,0.6979959279584262,36381000000
-1.2146452361129423,0.16596150535098067,0.6980593847783222,36386000000
-1.2648771005558392,0.15088845328379114,0.698226414691546,36391000000
-1.2431284323351974,0.17608674693384385,0.6983901703941273,36396000000
-1.2236741943519633,0.16486453906227086,0.6988118748859365,36401000000
-1.1864022834733339,0.1771730454745139,0.6991693135345153,36406000000
-1.2156477746104637,0.13464037687788832,0.6989375320657091,36411000000
-1.171698343811233,0.14288629895091215,0.6991644158771793,36416000000
-1.1209566765245076,0.17755068002436655,0.6996812422855017,36421000000
-1.1063779333327017,0.1842346908753098,0.6993711539647842,36426000000
-1.1144868921142324,0.16102123761393972,0.6997268540938116,36431000000
-1.0948218257364122,0.1600708905767938,0.6997913592448257,36436000000
-1.047241290465731,0.16462803461218073,0.6999408282116232,36441000000
-0.9938608209581964,0.13770654108414854,0.6998485428995739,36446000000
-0.9555152062904745,0.16097265573584188,0.7001845082291374,36452000000
-0.9698450824199903,0.12225586774889563,0.7002250374608318,36457000000
-0.8975780606057934,0.143596032032791,0.7006785481681318,36463000000
-0.8860571427148644,0.14912509467016835,0.7006322117521122,36468000000
-0.8642892276744893,0.16311070939030325,0.7007120998986809,36473000000
-0.8491768569287553,0.163103633698061,0.7005673676646428,36478000000
-0.814454956830698,0.1647353306139739,0.7008061766553579,36483000000
-0.7984955256818589,0.14122827256124515,0.7007179415026862,36488000000
-0.7312348215113416,0.1375636805314234,0.7008040823380595,36493000000
-0.722818650228291,0.18356224624118886,0.7008501795321006,36498000000
-0.700887548626025,0.15752999074798182,0.7002468884188559,36503000000
-0.6767502163202359,0.1574506388827472,0.7008048475887053,36508000000
-0.6753107457314885,0.13573327347440473,0.7005379704237052,36513000000
-0.6457211586857436,0.1413576280432245,0.7003242285476804,36518000000
-0.6013568494601027,0.13267079826324674,0.7005370092657819,36523000000
-0.5620891906773872,0.13387634982867336,0.7001053984584923,36528000000
-0.6841974106403843,0.1198283018848016,0.7023791284309427,36533000000
-0.49410611259591597,0.14488077248797293,0.7019351775817698,36539000000
-0.41374093381255744,0.17227642341391522,0.7018683227825329,36544000000
0.020291820593012537,0.15130354198852594,0.7025507659999364,36549000000
-0.5880164152025765,0.11903186226782338,0.7050083253787583,36554000000
-0.8441508427312374,0.17787699237274662,0.7041363369606886,36559000000
0.0668153798280102,0.16584498240467213,0.7052683969435404,36565000000
-0.4414316782696557,0.11641279715099524,0.7071442970537295,36570000000
-0.8095954781091836,0.1524461437351407,0.7084666711904916,36575000000
-0.11478572309784414,0.2144138528483565,0.7082255996236093,36580000000
0.2666902352362506,0.16288271221946005,0.7099787775921852,36585000000
-0.37825370489410864,0.16317723976229997,0.7129035760560598,36590000000
-0.6265447515847368,0.16368592356878917,0.714164590366362,36595000000
0.10449013081865484,0.2478846685646514,0.7145630019132408,36600000000
0.0020702596340900015,0.17552720030490365,0.7163555140900526,36605000000
-0.30395340009601757,0.200168407627335,0.7195833368246404,36610000000
-0.07383332636142517,0.1868662202748845,0.7213472730219731,36615000000
-0.024871979808244,0.18655446965191563,0.7220408151106955,36620000000
-0.00927392499398073,0.20333472656948523,0.7233897143952794,36625000000
0.10044130053598568,0.18031340063334153,0.7267517799631144,36630000000
-0.3850529385136217,0.2372194859512777,0.7275025693564104,36635000000
-0.6899843779575402,0.2761133863774051,0.7256720336001389,36640000000
0.29210338672544905,0.21858904855815006,0.7230443699031638,36645000000
0.1603183804779214,0.19531714012211493,0.7190119767461929,36650000000
0.1143808211674957,0.20634901252928423,0.7146209336050927,36655000000
0.054217738200014784,0.2195553882002388,0.7119974355484561,36660000000
0.48285640319404366,0.07481746581171736,0.7066489446792822,36665000000
0.8410923304291344,-0.036084763574049133,0.7034097442084221,36670000000
0.956967804364915,-0.10020998252918023,0.6992061811478848,36675000000
1.1233231220057744,-0.17832940615051404,0.6936440957959631,36680000000
1.258866224260583,-0.22541371697536267,0.6895606479551404,36685000000
1.2487508340631557,-0.02580309406466793,0.6852073696101711,36690000000
1.3111756570822348,-0.03305451394496342,0.6810461445951991,36695000000
1.152685307725716,-0.07107616556087663,0.6755872383554012,36701000000
1.182548978529207,-0.07096236156779465,0.6711729034323823,36706000000
1.2353284634108428,-0.09736768005353172,0.6644412598585112,36713000000
1.193471690405425,-0.056815858189527946,0.6608645754607068,36718000000
1.1957180690873481,-0.0661275482840256,0.6564871741554578,36723000000
1.2294033234219475,-0.12932866922747402,0.651960990791452,36728000000
1.3614770151939062,-0.12349501546902811,0.6473453711679258,36733000000
1.7465738395994679,-0.23975424266348794,0.6417110560304324,36738000000
3.5966217596687313,-0.6994150864745288,0.6361838453786719,36744000000
2.0284783744898633,-0.25419600002517284,0.6309781326868301,36749000000
-11.05237037423539,4.414257944856711,0.6323881411008213,36754000000
-3.9390704274547756,1.8388403769098163,0.6300876095481521,36759000000
-0.6934490172141371,0.6624746415903208,0.6266343167407574,36764000000
0.13519118412658848,0.3653474161348624,0.6226561184509753,36769000000
0.4967069916144527,0.3012668157237807,0.6187731763822906,36774000000
0.662406089788521,0.23973579025679767,0.6141263305847509,36779000000
0.8073574708416862,0.5524138558048333,0.6097897131494736,36784000000
-2.998235016645705,1.5806000297882077,0.6065703625570387,36789000000
-7.166079049838052,3.06751740997659,0.6051479605706311,36794000000
-7.787313170705822,3.374624676709016,0.6039614936882964,36799000000
-8.358358569322597,3.655344254511532,0.6027941540068963,36804000000
-8.900209932160587,3.9276742967256175,0.601093127883732,36809000000
32.19734065372577,-11.885771909030852,0.5778340836666537,36814000000
5.506274142792017,-1.556876223425589,0.5692317708805842,36819000000
-6.389126344928114,3.0468014893969486,0.5666394725641913,36824000000
-8.876960733142926,4.082241584584429,0.5648502112650631,36829000000
-50.2717830452294,9.63398378098878,0.5793761154267848,36834000000
-2.0571732984187774,0.9838635288632314,0.5789297433481029,36839000000
-3.6395371605822295,1.761624138846152,0.5777321098352247,36844000000
-4.610553730992151,2.207641999148412,0.577416221824018,36849000000
-5.516245018930136,2.683491750081979,0.5760196880351468,36854000000
-6.581130138882088,3.2379760071125023,0.5746582103367159,36859000000
-7.270860188456126,3.6172146903487628,0.5733099727864623,36864000000
-4.52309932202617,-5.183164821594866,0.5756253393905231,36869000000
-3.379042578633632,-9.421922108445385,0.5790348571012196,36874000000
-3.0969502081855533,-9.742606651725474,0.5840300276415359,36879000000
37.11002324292066,4.277596246968353,0.5670371802112033,36884000000
-0.400859194835818,-2.2856663732583398,0.5679269079939511,36889000000
3.1462221963967774,-2.171384399247551,0.5690346153241289,36894000000
5.6484459140129415,-2.484466744170278,0.5700840391060492,36899000000
6.443108019359375,-3.0997545119266228,0.570629588311713,36904000000
4.820569889828596,-2.898004844689288,0.5718254178292475,36909000000
0.5441160626168914,2.4194140796683015,0.5711263193635451,36914000000
-1.5818990820027246,4.483004254326807,0.5695073571473591,36919000000
-1.6949864664787555,3.8096320238082364,0.5677380985503481,36924000000
-3.454760959322259,2.682613726134725,0.5677860154684781,36929000000
1.4385352562447216,-0.558886958238351,0.567982893420874,36934000000
3.3105000450474633,-1.5096189920276042,0.5683351541211349,36939000000
4.715871608811484,-1.7489299519443522,0.5692703506123057,36944000000
5.179150887638149,-0.19482021398538257,0.5690479325209715,36949000000
2.5049543291122047,0.43125102903417845,0.5690746395680025,36954000000
-0.30204357861660125,0.4079685436882955,0.5689885807454175,36959000000
-1.4156065081870475,0.2794817241818325,0.5686693258315682,36964000000
-1.1786975353884754,0.08632303663544544,0.5683331014365359,36969000000
-16.71317665035577,2.965556834562002,0.5600793424983653,36974000000
2.7195430235838356,-1.3010848558057,0.5603885205973946,36979000000
4.362197752732092,-2.148503167123558,0.5615900172431566,36984000000
5.790749703099499,-2.789388914262869,0.5624398237189355,36989000000
7.00296401216833,-3.4071164696333884,0.5637487044969183,36994000000
7.228714194984497,-1.5841951384249002,0.5644495425200579,36999000000
6.752351678031073,3.108734304898182,0.5623918707951362,37004000000
-27.82406783032325,9.414256188291555,0.5488835853467371,37009000000
1.0733503565763423,-0.5709880742637704,0.5492938866415031,37014000000
3.08049114607107,-1.5398946240183629,0.5493086611395491,37019000000
4.659447699770709,-2.3592736820210685,0.5503308871499866,37024000000
6.137798138332712,-3.118111080762499,0.5514230059631011,37029000000
6.836491252690449,-1.526914334330826,0.5525982377659372,37034000000
6.667029769550624,2.181077370127958,0.551404731442609,37039000000
-17.37742931099986,7.6461520744332026,0.5397732138344482,37044000000
1.4288727466851503,-0.7472642956628597,0.5394221853956899,37049000000
3.129035715476459,-1.6227733441937868,0.5407037008654374,37054000000
4.725909567047327,-2.4380282947181544,0.5412987815049497,37059000000
6.05360490342447,-3.149776604111664,0.5422708717991941,37064000000
6.4803986480990075,-0.818862918975845,0.542797708684057,37069000000
6.569534844289288,2.288392683111393,0.5416143360614735,37074000000
-15.609454905336413,6.389682032150156,0.531156876692559,37079000000
2.111792334391072,-1.1516892332941537,0.5318203256251757,37084000000
4.0043009982186195,-2.179645778304804,0.5327719275388801,37089000000
5.521079302647946,-2.9336077377925807,0.5337110633831844,37095000000
6.133620045875287,-0.8410962741001341,0.5344635282658983,37100000000
6.439070507926261,1.8633090077283687,0.533902597840882,37105000000
-12.782200747859985,5.801442861538321,0.5242305158940013,37110000000
1.7769799490341165,-0.9960819262202899,0.5245590454903017,37115000000
